Source.Name,shape_left,shape_right,probability_left,probability_right,address_left,address_right,difficulty,shape_left_es,shape_right_es,probability_left_es,probability_right_es,address_left_es,address_right_es,trials.thisRepN,trials.thisTrialN,trials.thisN,trials.thisIndex,trials_2.thisRepN,trials_2.thisTrialN,trials_2.thisN,trials_2.thisIndex,trials_es.thisRepN,trials_es.thisTrialN,trials_es.thisN,trials_es.thisIndex,image_back.started,image_welcome.started,Text_2.started,key_resp.started,key_resp.keys,key_resp.rt,image_back2.started,image_instruct1.started,text_3.started,key_resp_2.started,key_resp_2.keys,key_resp_2.rt,image_back3.started,image_instruct2.started,text_4.started,key_resp_3.started,key_resp_3.keys,key_resp_3.rt,image_background.started,image_left.started,image_right.started,mouse.started,mouse.x,mouse.y,mouse.leftButton,mouse.midButton,mouse.rightButton,mouse.clicked_name,chosen_side,chosen_probability,chosen_shape,outcome_left,outcome_right,chosen_outcome,image_background2.started,text.started,image_retained.started,image_back4.started,key_resp_4.started,image_instruct3.started,text_5.started,key_resp_4.keys,key_resp_4.rt,image_background3.started,image_left_es.started,image_right_es.started,mouse_es.started,mouse_es.x,mouse_es.y,mouse_es.leftButton,mouse_es.midButton,mouse_es.rightButton,mouse_es.clicked_name,chosen_side_es,chosen_probability_es,chosen_shape_es,outcome_left_es,outcome_right_es,chosen_outcome_es,image_background4.started,text_2.started.1,image_background4.stopped,text_2.stopped,participant,session,date,expName,psychopyVersion,frameRate,Column1
Anusha_EE_trial_2023-04-17_20h19.59.560.csv,,,,,,,,,,,,,,,,,,,,,,,,,,43.03451498,43.03451498,43.03451498,43.03451498,space,2.209100227,,,,,,,,,,,,,,,,,,,,,,,,,,,,,,,,,,,,,,,,,,,,,,,,,,,,,,,,,,Anusha,2,2023-04-17_20h19.59.560,EE_trial,05-02-2022,None,
Anusha_EE_trial_2023-04-17_20h19.59.560.csv,,,,,,,,,,,,,,,,,,,,,,,,,,,,,,,,45.29648234,45.29648234,45.29648234,45.29648234,space,1.667109993,,,,,,,,,,,,,,,,,,,,,,,,,,,,,,,,,,,,,,,,,,,,,,,,,,,,Anusha,2,2023-04-17_20h19.59.560,EE_trial,05-02-2022,None,
Anusha_EE_trial_2023-04-17_20h19.59.560.csv,,,,,,,,,,,,,,,,,,,,,,,,,,,,,,,,,,,,,,46.99595169,46.99595169,46.99595169,46.99595169,space,2.408972339,,,,,,,,,,,,,,,,,,,,,,,,,,,,,,,,,,,,,,,,,,,,,,Anusha,2,2023-04-17_20h19.59.560,EE_trial,05-02-2022,None,
Anusha_EE_trial_2023-04-17_20h19.59.560.csv,triangle,square,0.4,0.6,triangle.png,square.png,,,,,,,,0,0,0,0,,,,,,,,,,,,,,,,,,,,,,,,,,,49.48782286,49.90854932,49.90854932,0.507073869,-0.26,0.023333333,1,0,0,image_left,left,0.4,triangle,1,1,1,54.49810766,54.49810766,54.49810766,,,,,,,,,,,,,,,,,,,,,,,,,,,Anusha,2,2023-04-17_20h19.59.560,EE_trial,05-02-2022,None,
Anusha_EE_trial_2023-04-17_20h19.59.560.csv,cross,circle,0.1,0.9,cross.png,circle.png,,,,,,,,0,1,1,2,,,,,,,,,,,,,,,,,,,,,,,,,,,55.50414866,55.95964043,55.95964043,0.505730195,-0.313333333,-0.018888889,1,0,0,image_left,left,0.1,cross,-1,-1,-1,58.29241651,58.29241651,58.29241651,,,,,,,,,,,,,,,,,,,,,,,,,,,Anusha,2,2023-04-17_20h19.59.560,EE_trial,05-02-2022,None,
Anusha_EE_trial_2023-04-17_20h19.59.560.csv,square,triangle,0.6,0.4,square.png,triangle.png,,,,,,,,0,2,2,1,,,,,,,,,,,,,,,,,,,,,,,,,,,59.31128161,59.76640889,59.76640889,0.505499826,-0.313333333,-0.018888889,1,0,0,image_left,left,0.6,square,-1,-1,-1,61.50442505,61.50442505,61.50442505,,,,,,,,,,,,,,,,,,,,,,,,,,,Anusha,2,2023-04-17_20h19.59.560,EE_trial,05-02-2022,None,
Anusha_EE_trial_2023-04-17_20h19.59.560.csv,circle,cross,0.9,0.1,circle.png,cross.png,,,,,,,,0,3,3,3,,,,,,,,,,,,,,,,,,,,,,,,,,,62.51168449,62.98084822,62.98084822,0.501953564,-0.313333333,-0.018888889,1,0,0,image_left,left,0.9,circle,1,-1,1,64.27040596,64.27040596,64.27040596,,,,,,,,,,,,,,,,,,,,,,,,,,,Anusha,2,2023-04-17_20h19.59.560,EE_trial,05-02-2022,None,
Anusha_EE_trial_2023-04-17_20h19.59.560.csv,triangle,square,0.4,0.6,triangle.png,square.png,,,,,,,,1,0,4,0,,,,,,,,,,,,,,,,,,,,,,,,,,,65.28187477,65.74319147,65.74319147,0.508629769,-0.313333333,-0.018888889,1,0,0,image_left,left,0.4,triangle,1,1,1,69.47703083,69.47703083,69.47703083,,,,,,,,,,,,,,,,,,,,,,,,,,,Anusha,2,2023-04-17_20h19.59.560,EE_trial,05-02-2022,None,
Anusha_EE_trial_2023-04-17_20h19.59.560.csv,cross,circle,0.1,0.9,cross.png,circle.png,,,,,,,,1,1,5,2,,,,,,,,,,,,,,,,,,,,,,,,,,,70.49835781,70.95074853,70.95074853,0.50531956,0.241111111,-0.001111111,1,0,0,image_right,right,0.9,circle,-1,-1,-1,77.10388159,77.10388159,77.10388159,,,,,,,,,,,,,,,,,,,,,,,,,,,Anusha,2,2023-04-17_20h19.59.560,EE_trial,05-02-2022,None,
Anusha_EE_trial_2023-04-17_20h19.59.560.csv,cross,circle,0.1,0.9,cross.png,circle.png,,,,,,,,1,2,6,2,,,,,,,,,,,,,,,,,,,,,,,,,,,78.11355929,78.57498501,78.57498501,0.506368291,0.242222222,-0.001111111,1,0,0,image_right,right,0.9,circle,-1,1,1,80.15084108,80.15084108,80.15084108,,,,,,,,,,,,,,,,,,,,,,,,,,,Anusha,2,2023-04-17_20h19.59.560,EE_trial,05-02-2022,None,
Anusha_EE_trial_2023-04-17_20h19.59.560.csv,circle,cross,0.9,0.1,circle.png,cross.png,,,,,,,,1,3,7,3,,,,,,,,,,,,,,,,,,,,,,,,,,,81.1554807,81.62548017,81.62548017,0.510052067,-0.248888889,0.048888889,1,0,0,image_left,left,0.9,circle,1,-1,1,83.67420234,83.67420234,83.67420234,,,,,,,,,,,,,,,,,,,,,,,,,,,Anusha,2,2023-04-17_20h19.59.560,EE_trial,05-02-2022,None,
Anusha_EE_trial_2023-04-17_20h19.59.560.csv,circle,cross,0.9,0.1,circle.png,cross.png,,,,,,,,2,0,8,3,,,,,,,,,,,,,,,,,,,,,,,,,,,84.68404711,85.14222021,85.14222021,0.505206985,-0.248888889,0.048888889,1,0,0,image_left,left,0.9,circle,1,-1,1,86.09493013,86.09493013,86.09493013,,,,,,,,,,,,,,,,,,,,,,,,,,,Anusha,2,2023-04-17_20h19.59.560,EE_trial,05-02-2022,None,
Anusha_EE_trial_2023-04-17_20h19.59.560.csv,cross,circle,0.1,0.9,cross.png,circle.png,,,,,,,,2,1,9,2,,,,,,,,,,,,,,,,,,,,,,,,,,,87.11651167,87.57025807,87.57025807,0.508021071,0.221111111,0.013333333,1,0,0,image_right,right,0.9,circle,-1,-1,-1,89.65334944,89.65334944,89.65334944,,,,,,,,,,,,,,,,,,,,,,,,,,,Anusha,2,2023-04-17_20h19.59.560,EE_trial,05-02-2022,None,
Anusha_EE_trial_2023-04-17_20h19.59.560.csv,cross,circle,0.1,0.9,cross.png,circle.png,,,,,,,,2,2,10,2,,,,,,,,,,,,,,,,,,,,,,,,,,,90.66381972,91.12427008,91.12427008,0.506017302,0.221111111,0.013333333,1,0,0,image_right,right,0.9,circle,-1,1,1,92.21923031,92.21923031,92.21923031,,,,,,,,,,,,,,,,,,,,,,,,,,,Anusha,2,2023-04-17_20h19.59.560,EE_trial,05-02-2022,None,
Anusha_EE_trial_2023-04-17_20h19.59.560.csv,square,triangle,0.6,0.4,square.png,triangle.png,,,,,,,,2,3,11,1,,,,,,,,,,,,,,,,,,,,,,,,,,,93.23142109,93.68973306,93.68973306,0.502928869,0.221111111,0.013333333,0,0,1,image_right,right,0.4,triangle,1,-1,-1,95.31861103,95.31861103,95.31861103,,,,,,,,,,,,,,,,,,,,,,,,,,,Anusha,2,2023-04-17_20h19.59.560,EE_trial,05-02-2022,None,
Anusha_EE_trial_2023-04-17_20h19.59.560.csv,cross,circle,0.1,0.9,cross.png,circle.png,,,,,,,,3,0,12,2,,,,,,,,,,,,,,,,,,,,,,,,,,,96.33276429,96.79080074,96.79080074,0.503855907,0.221111111,0.017777778,0,0,1,image_right,right,0.9,circle,-1,1,1,98.35819857,98.35819857,98.35819857,,,,,,,,,,,,,,,,,,,,,,,,,,,Anusha,2,2023-04-17_20h19.59.560,EE_trial,05-02-2022,None,
Anusha_EE_trial_2023-04-17_20h19.59.560.csv,triangle,square,0.4,0.6,triangle.png,square.png,,,,,,,,3,1,13,0,,,,,,,,,,,,,,,,,,,,,,,,,,,99.37065678,99.84704886,99.84704886,0.510859061,-0.255555556,-0.023333333,1,0,0,image_left,left,0.4,triangle,-1,1,-1,101.6743478,101.6743478,101.6743478,,,,,,,,,,,,,,,,,,,,,,,,,,,Anusha,2,2023-04-17_20h19.59.560,EE_trial,05-02-2022,None,
Anusha_EE_trial_2023-04-17_20h19.59.560.csv,circle,cross,0.9,0.1,circle.png,cross.png,,,,,,,,3,2,14,3,,,,,,,,,,,,,,,,,,,,,,,,,,,102.6918628,103.1592856,103.1592856,0.508180152,-0.255555556,-0.023333333,0,0,1,image_left,left,0.9,circle,-1,-1,-1,105.2329302,105.2329302,105.2329302,,,,,,,,,,,,,,,,,,,,,,,,,,,Anusha,2,2023-04-17_20h19.59.560,EE_trial,05-02-2022,None,
Anusha_EE_trial_2023-04-17_20h19.59.560.csv,square,triangle,0.6,0.4,square.png,triangle.png,,,,,,,,3,3,15,1,,,,,,,,,,,,,,,,,,,,,,,,,,,106.2465882,106.6988844,106.6988844,0.501889534,-0.255555556,-0.023333333,0,0,1,image_left,left,0.6,square,1,-1,1,107.93224,107.93224,107.93224,,,,,,,,,,,,,,,,,,,,,,,,,,,Anusha,2,2023-04-17_20h19.59.560,EE_trial,05-02-2022,None,
Anusha_EE_trial_2023-04-17_20h19.59.560.csv,triangle,square,0.4,0.6,triangle.png,square.png,,,,,,,,4,0,16,0,,,,,,,,,,,,,,,,,,,,,,,,,,,108.9521176,109.4073198,109.4073198,0.49943342,-0.255555556,-0.023333333,0,0,1,image_left,left,0.4,triangle,-1,-1,-1,110.4311196,110.4311196,110.4311196,,,,,,,,,,,,,,,,,,,,,,,,,,,Anusha,2,2023-04-17_20h19.59.560,EE_trial,05-02-2022,None,
Anusha_EE_trial_2023-04-17_20h19.59.560.csv,circle,cross,0.9,0.1,circle.png,cross.png,,,,,,,,4,1,17,3,,,,,,,,,,,,,,,,,,,,,,,,,,,111.4419108,111.9073047,111.9073047,0.509517128,-0.255555556,-0.024444444,1,0,0,image_left,left,0.9,circle,1,1,1,120.1120504,120.1120504,120.1120504,,,,,,,,,,,,,,,,,,,,,,,,,,,Anusha,2,2023-04-17_20h19.59.560,EE_trial,05-02-2022,None,
Anusha_EE_trial_2023-04-17_20h19.59.560.csv,square,triangle,0.6,0.4,square.png,triangle.png,,,,,,,,4,2,18,1,,,,,,,,,,,,,,,,,,,,,,,,,,,121.1199248,121.5825314,121.5825314,0.505259818,-0.255555556,-0.024444444,1,0,0,image_left,left,0.6,square,-1,-1,-1,122.9774822,122.9774822,122.9774822,,,,,,,,,,,,,,,,,,,,,,,,,,,Anusha,2,2023-04-17_20h19.59.560,EE_trial,05-02-2022,None,
Anusha_EE_trial_2023-04-17_20h19.59.560.csv,circle,cross,0.9,0.1,circle.png,cross.png,,,,,,,,4,3,19,3,,,,,,,,,,,,,,,,,,,,,,,,,,,123.9907222,124.4634395,124.4634395,0.507741929,-0.255555556,-0.024444444,1,0,0,image_left,left,0.9,circle,1,-1,1,125.3322331,125.3322331,125.3322331,,,,,,,,,,,,,,,,,,,,,,,,,,,Anusha,2,2023-04-17_20h19.59.560,EE_trial,05-02-2022,None,
Anusha_EE_trial_2023-04-17_20h19.59.560.csv,square,triangle,0.6,0.4,square.png,triangle.png,,,,,,,,5,0,20,1,,,,,,,,,,,,,,,,,,,,,,,,,,,126.3537588,126.8087057,126.8087057,0.499685043,-0.255555556,-0.024444444,1,0,0,image_left,left,0.6,square,-1,-1,-1,128.6377054,128.6377054,128.6377054,,,,,,,,,,,,,,,,,,,,,,,,,,,Anusha,2,2023-04-17_20h19.59.560,EE_trial,05-02-2022,None,
Anusha_EE_trial_2023-04-17_20h19.59.560.csv,cross,circle,0.1,0.9,cross.png,circle.png,,,,,,,,5,1,21,2,,,,,,,,,,,,,,,,,,,,,,,,,,,129.6450992,130.1141369,130.1141369,0.500211066,-0.255555556,-0.024444444,1,0,0,image_left,left,0.1,cross,-1,1,-1,132.7092254,132.7092254,132.7092254,,,,,,,,,,,,,,,,,,,,,,,,,,,Anusha,2,2023-04-17_20h19.59.560,EE_trial,05-02-2022,None,
Anusha_EE_trial_2023-04-17_20h19.59.560.csv,square,triangle,0.6,0.4,square.png,triangle.png,,,,,,,,5,2,22,1,,,,,,,,,,,,,,,,,,,,,,,,,,,133.7256864,134.1830242,134.1830242,0.507318296,-0.255555556,-0.024444444,1,0,0,image_left,left,0.6,square,-1,-1,-1,135.0364857,135.0364857,135.0364857,,,,,,,,,,,,,,,,,,,,,,,,,,,Anusha,2,2023-04-17_20h19.59.560,EE_trial,05-02-2022,None,
Anusha_EE_trial_2023-04-17_20h19.59.560.csv,cross,circle,0.1,0.9,cross.png,circle.png,,,,,,,,5,3,23,2,,,,,,,,,,,,,,,,,,,,,,,,,,,136.0573929,136.5068261,136.5068261,0.501510805,0.22,0.012222222,1,0,0,image_right,right,0.9,circle,1,1,1,139.2517516,139.2517516,139.2517516,,,,,,,,,,,,,,,,,,,,,,,,,,,Anusha,2,2023-04-17_20h19.59.560,EE_trial,05-02-2022,None,
Anusha_EE_trial_2023-04-17_20h19.59.560.csv,triangle,square,0.4,0.6,triangle.png,square.png,,,,,,,,6,0,24,0,,,,,,,,,,,,,,,,,,,,,,,,,,,140.2653909,140.7255214,140.7255214,0.500323881,-0.242222222,0.041111111,1,0,0,image_left,left,0.4,triangle,1,1,1,143.5241709,143.5241709,143.5241709,,,,,,,,,,,,,,,,,,,,,,,,,,,Anusha,2,2023-04-17_20h19.59.560,EE_trial,05-02-2022,None,
Anusha_EE_trial_2023-04-17_20h19.59.560.csv,circle,cross,0.9,0.1,circle.png,cross.png,,,,,,,,6,1,25,3,,,,,,,,,,,,,,,,,,,,,,,,,,,144.542115,145.0124378,145.0124378,0.511358092,-0.242222222,0.041111111,1,0,0,image_left,left,0.9,circle,1,1,1,146.0696503,146.0696503,146.0696503,,,,,,,,,,,,,,,,,,,,,,,,,,,Anusha,2,2023-04-17_20h19.59.560,EE_trial,05-02-2022,None,
Anusha_EE_trial_2023-04-17_20h19.59.560.csv,triangle,square,0.4,0.6,triangle.png,square.png,,,,,,,,6,2,26,0,,,,,,,,,,,,,,,,,,,,,,,,,,,147.0795429,147.5641619,147.5641619,0.500893551,0.367777778,0.037777778,1,0,0,image_right,right,0.6,square,-1,-1,-1,154.6997378,154.6997378,154.6997378,,,,,,,,,,,,,,,,,,,,,,,,,,,Anusha,2,2023-04-17_20h19.59.560,EE_trial,05-02-2022,None,
Anusha_EE_trial_2023-04-17_20h19.59.560.csv,circle,cross,0.9,0.1,circle.png,cross.png,,,,,,,,6,3,27,3,,,,,,,,,,,,,,,,,,,,,,,,,,,155.7127783,156.1691782,156.1691782,0.506105566,-0.303333333,0.022222222,1,0,0,image_left,left,0.9,circle,1,1,1,157.7867102,157.7867102,157.7867102,,,,,,,,,,,,,,,,,,,,,,,,,,,Anusha,2,2023-04-17_20h19.59.560,EE_trial,05-02-2022,None,
Anusha_EE_trial_2023-04-17_20h19.59.560.csv,triangle,square,0.4,0.6,triangle.png,square.png,,,,,,,,7,0,28,0,,,,,,,,,,,,,,,,,,,,,,,,,,,158.8017678,159.2662071,159.2662071,0.501257863,-0.301111111,0.022222222,1,0,0,image_left,left,0.4,triangle,1,1,1,160.8473863,160.8473863,160.8473863,,,,,,,,,,,,,,,,,,,,,,,,,,,Anusha,2,2023-04-17_20h19.59.560,EE_trial,05-02-2022,None,
Anusha_EE_trial_2023-04-17_20h19.59.560.csv,triangle,square,0.4,0.6,triangle.png,square.png,,,,,,,,7,1,29,0,,,,,,,,,,,,,,,,,,,,,,,,,,,161.8593079,162.3233302,162.3233302,0.499026274,-0.301111111,0.022222222,1,0,0,image_left,left,0.4,triangle,1,1,1,165.3139407,165.3139407,165.3139407,,,,,,,,,,,,,,,,,,,,,,,,,,,Anusha,2,2023-04-17_20h19.59.560,EE_trial,05-02-2022,None,
Anusha_EE_trial_2023-04-17_20h19.59.560.csv,triangle,square,0.4,0.6,triangle.png,square.png,,,,,,,,7,2,30,0,,,,,,,,,,,,,,,,,,,,,,,,,,,166.3194529,166.780124,166.780124,0.49956197,-0.301111111,0.022222222,1,0,0,image_left,left,0.4,triangle,-1,-1,-1,167.7720292,167.7720292,167.7720292,,,,,,,,,,,,,,,,,,,,,,,,,,,Anusha,2,2023-04-17_20h19.59.560,EE_trial,05-02-2022,None,
Anusha_EE_trial_2023-04-17_20h19.59.560.csv,square,triangle,0.6,0.4,square.png,triangle.png,,,,,,,,7,3,31,1,,,,,,,,,,,,,,,,,,,,,,,,,,,168.7927181,169.2556073,169.2556073,0.501759658,-0.301111111,0.022222222,1,0,0,image_left,left,0.6,square,1,1,1,170.129871,170.129871,170.129871,,,,,,,,,,,,,,,,,,,,,,,,,,,Anusha,2,2023-04-17_20h19.59.560,EE_trial,05-02-2022,None,
Anusha_EE_trial_2023-04-17_20h19.59.560.csv,cross,circle,0.1,0.9,cross.png,circle.png,,,,,,,,8,0,32,2,,,,,,,,,,,,,,,,,,,,,,,,,,,171.1541731,171.6076686,171.6076686,0.499656846,-0.246666667,-0.001111111,1,0,0,image_left,left,0.1,cross,-1,1,-1,174.120733,174.120733,174.120733,,,,,,,,,,,,,,,,,,,,,,,,,,,Anusha,2,2023-04-17_20h19.59.560,EE_trial,05-02-2022,None,
Anusha_EE_trial_2023-04-17_20h19.59.560.csv,cross,circle,0.1,0.9,cross.png,circle.png,,,,,,,,8,1,33,2,,,,,,,,,,,,,,,,,,,,,,,,,,,175.1382974,175.6075083,175.6075083,0.499636331,0.276666667,-0.01,1,0,0,image_right,right,0.9,circle,-1,1,1,177.4169684,177.4169684,177.4169684,,,,,,,,,,,,,,,,,,,,,,,,,,,Anusha,2,2023-04-17_20h19.59.560,EE_trial,05-02-2022,None,
Anusha_EE_trial_2023-04-17_20h19.59.560.csv,square,triangle,0.6,0.4,square.png,triangle.png,,,,,,,,8,2,34,1,,,,,,,,,,,,,,,,,,,,,,,,,,,178.4291508,178.8967922,178.8967922,0.503632189,-0.237777778,0.017777778,1,0,0,image_left,left,0.6,square,-1,-1,-1,181.2506618,181.2506618,181.2506618,,,,,,,,,,,,,,,,,,,,,,,,,,,Anusha,2,2023-04-17_20h19.59.560,EE_trial,05-02-2022,None,
Anusha_EE_trial_2023-04-17_20h19.59.560.csv,square,triangle,0.6,0.4,square.png,triangle.png,,,,,,,,8,3,35,1,,,,,,,,,,,,,,,,,,,,,,,,,,,182.2692331,182.7233894,182.7233894,0.507087658,0.237777778,0.014444444,1,0,0,image_right,right,0.4,triangle,-1,-1,-1,185.1846699,185.1846699,185.1846699,,,,,,,,,,,,,,,,,,,,,,,,,,,Anusha,2,2023-04-17_20h19.59.560,EE_trial,05-02-2022,None,
Anusha_EE_trial_2023-04-17_20h19.59.560.csv,triangle,square,0.4,0.6,triangle.png,square.png,,,,,,,,9,0,36,0,,,,,,,,,,,,,,,,,,,,,,,,,,,186.2034024,186.6558874,186.6558874,0.504727559,0.252222222,0.014444444,1,0,0,image_right,right,0.6,square,1,1,1,188.6386688,188.6386688,188.6386688,,,,,,,,,,,,,,,,,,,,,,,,,,,Anusha,2,2023-04-17_20h19.59.560,EE_trial,05-02-2022,None,
Anusha_EE_trial_2023-04-17_20h19.59.560.csv,square,triangle,0.6,0.4,square.png,triangle.png,,,,,,,,9,1,37,1,,,,,,,,,,,,,,,,,,,,,,,,,,,189.6601432,190.1186696,190.1186696,0.500057497,0.252222222,0.014444444,1,0,0,image_right,right,0.4,triangle,1,1,1,194.3990122,194.3990122,194.3990122,,,,,,,,,,,,,,,,,,,,,,,,,,,Anusha,2,2023-04-17_20h19.59.560,EE_trial,05-02-2022,None,
Anusha_EE_trial_2023-04-17_20h19.59.560.csv,circle,cross,0.9,0.1,circle.png,cross.png,,,,,,,,9,2,38,3,,,,,,,,,,,,,,,,,,,,,,,,,,,195.4144675,195.874545,195.874545,0.510481126,0.252222222,0.014444444,1,0,0,image_right,right,0.1,cross,1,-1,-1,197.5459621,197.5459621,197.5459621,,,,,,,,,,,,,,,,,,,,,,,,,,,Anusha,2,2023-04-17_20h19.59.560,EE_trial,05-02-2022,None,
Anusha_EE_trial_2023-04-17_20h19.59.560.csv,circle,cross,0.9,0.1,circle.png,cross.png,,,,,,,,9,3,39,3,,,,,,,,,,,,,,,,,,,,,,,,,,,198.55576,199.0290532,199.0290532,0.509240549,-0.358888889,-0.018888889,1,0,0,image_left,left,0.9,circle,1,-1,1,201.1360481,201.1360481,201.1360481,,,,,,,,,,,,,,,,,,,,,,,,,,,Anusha,2,2023-04-17_20h19.59.560,EE_trial,05-02-2022,None,
Anusha_EE_trial_2023-04-17_20h19.59.560.csv,,,,,,,,,,,,,,,,,,,,,,,,,,,,,,,,,,,,,,,,,,,,,,,,,,,,,,,,,,,,,,,202.1581251,202.1581251,202.1581251,202.1581251,space,1.772504574,,,,,,,,,,,,,,,,,,,,,Anusha,2,2023-04-17_20h19.59.560,EE_trial,05-02-2022,None,
Anusha_EE_trial_2023-04-17_20h19.59.560.csv,,,,,,,1,triangle,0.2,0.4,0.2,triangle.png,0.2.png,,,,,0,0,0,0,0,0,0,6,,,,,,,,,,,,,,,,,,,,,,,,,,,,,,,,,,,,,,,,,,,,204.0295612,204.4381869,204.4381869,0.510461162,0.245555556,0.186666667,1,0,0,image_right_es,right,0.2,0.2,-1,-1,-1,213.041135,213.041135,,,Anusha,2,2023-04-17_20h19.59.560,EE_trial,05-02-2022,None,
Anusha_EE_trial_2023-04-17_20h19.59.560.csv,,,,,,,1,cross,-0.8,0.1,0.1,cross.png,-0.8.png,,,,,0,0,0,0,0,1,1,15,,,,,,,,,,,,,,,,,,,,,,,,,,,,,,,,,,,,,,,,,,,,213.554097,214.0011033,214.0011033,0.508193133,-0.268888889,0.032222222,1,0,0,image_left_es,left,0.1,cross,-1,-1,-1,222.4095255,222.4095255,,,Anusha,2,2023-04-17_20h19.59.560,EE_trial,05-02-2022,None,
Anusha_EE_trial_2023-04-17_20h19.59.560.csv,,,,,,,1,circle,0,0.9,0.5,circle.png,0.png,,,,,0,0,0,0,0,2,2,24,,,,,,,,,,,,,,,,,,,,,,,,,,,,,,,,,,,,,,,,,,,,222.934184,223.390091,223.390091,0.507074202,-0.268888889,0.032222222,1,0,0,image_left_es,left,0.9,circle,1,1,1,225.5791232,225.5791232,,,Anusha,2,2023-04-17_20h19.59.560,EE_trial,05-02-2022,None,
Anusha_EE_trial_2023-04-17_20h19.59.560.csv,,,,,,,1,triangle,-0.2,0.4,0,triangle.png,-0.2.png,,,,,0,0,0,0,0,3,3,0,,,,,,,,,,,,,,,,,,,,,,,,,,,,,,,,,,,,,,,,,,,,226.1004949,226.5636406,226.5636406,0.507421329,-0.268888889,0.032222222,1,0,0,image_left_es,left,0.4,triangle,1,-1,1,236.268329,236.268329,,,Anusha,2,2023-04-17_20h19.59.560,EE_trial,05-02-2022,None,
Anusha_EE_trial_2023-04-17_20h19.59.560.csv,,,,,,,1,circle,-0.8,0.9,0.1,circle.png,-0.8.png,,,,,0,0,0,0,0,4,4,22,,,,,,,,,,,,,,,,,,,,,,,,,,,,,,,,,,,,,,,,,,,,236.8001155,237.2527135,237.2527135,0.507201476,-0.268888889,0.032222222,1,0,0,image_left_es,left,0.9,circle,1,-1,1,239.2890613,239.2890613,,,Anusha,2,2023-04-17_20h19.59.560,EE_trial,05-02-2022,None,
Anusha_EE_trial_2023-04-17_20h19.59.560.csv,,,,,,,1,triangle,0.8,0.4,0.9,triangle.png,0.8.png,,,,,0,0,0,0,0,5,5,5,,,,,,,,,,,,,,,,,,,,,,,,,,,,,,,,,,,,,,,,,,,,239.8181572,240.2805589,240.2805589,0.503684699,0.538888889,0.188888889,1,0,0,image_right_es,right,0.9,0.8,-1,1,1,248.3458985,248.3458985,248.8632994,248.8632994,Anusha,2,2023-04-17_20h19.59.560,EE_trial,05-02-2022,None,
Anusha_EE_trial_2023-04-17_20h19.59.560.csv,,,,,,,1,triangle,0,0.4,0.5,triangle.png,0.png,,,,,0,0,0,0,0,6,6,3,,,,,,,,,,,,,,,,,,,,,,,,,,,,,,,,,,,,,,,,,,,,248.8632994,249.3401383,249.3401383,0.509597377,0.123333333,0.043333333,1,0,0,image_right_es,right,0.5,0,-1,-1,-1,258.7523269,258.7523269,259.2749822,259.2749822,Anusha,2,2023-04-17_20h19.59.560,EE_trial,05-02-2022,None,
Anusha_EE_trial_2023-04-17_20h19.59.560.csv,,,,,,,1,square,0.4,0.6,0.7,square.png,0.4.png,,,,,0,0,0,0,0,7,7,11,,,,,,,,,,,,,,,,,,,,,,,,,,,,,,,,,,,,,,,,,,,,259.2749822,259.7380848,259.7380848,0.49984705,0.505555556,-0.037777778,1,0,0,image_right_es,right,0.7,0.4,1,1,1,265.765752,265.765752,,,Anusha,2,2023-04-17_20h19.59.560,EE_trial,05-02-2022,None,
Anusha_EE_trial_2023-04-17_20h19.59.560.csv,,,,,,,1,square,0.8,0.6,0.9,square.png,0.8.png,,,,,0,0,0,0,0,8,8,12,,,,,,,,,,,,,,,,,,,,,,,,,,,,,,,,,,,,,,,,,,,,266.2895378,266.7547304,266.7547304,0.502113,0.393333333,0.112222222,1,0,0,image_right_es,right,0.9,0.8,-1,1,1,272.0871275,272.0871275,,,Anusha,2,2023-04-17_20h19.59.560,EE_trial,05-02-2022,None,
Anusha_EE_trial_2023-04-17_20h19.59.560.csv,,,,,,,1,cross,-0.4,0.1,0.3,cross.png,-0.4.png,,,,,0,0,0,0,0,9,9,16,,,,,,,,,,,,,,,,,,,,,,,,,,,,,,,,,,,,,,,,,,,,272.6177392,273.0744241,273.0744241,0.50041475,0.103333333,0.193333333,1,0,0,image_right_es,right,0.3,-0.4,-1,-1,-1,281.7706511,281.7706511,282.2934877,282.2934877,Anusha,2,2023-04-17_20h19.59.560,EE_trial,05-02-2022,None,
Anusha_EE_trial_2023-04-17_20h19.59.560.csv,,,,,,,1,circle,0.8,0.9,0.9,circle.png,0.8.png,,,,,0,0,0,0,0,10,10,26,,,,,,,,,,,,,,,,,,,,,,,,,,,,,,,,,,,,,,,,,,,,282.2934877,282.7534075,282.7534075,0.521656905,0.276666667,0.041111111,1,0,0,image_right_es,right,0.9,0.8,1,1,1,291.5412025,291.5412025,,,Anusha,2,2023-04-17_20h19.59.560,EE_trial,05-02-2022,None,
Anusha_EE_trial_2023-04-17_20h19.59.560.csv,,,,,,,1,triangle,0.4,0.4,0.7,triangle.png,0.4.png,,,,,0,0,0,0,0,11,11,4,,,,,,,,,,,,,,,,,,,,,,,,,,,,,,,,,,,,,,,,,,,,292.0665043,292.5228886,292.5228886,0.507495263,0.33,0.04,1,0,0,image_right_es,right,0.7,0.4,1,1,1,296.5248742,296.5248742,297.0535982,297.0535982,Anusha,2,2023-04-17_20h19.59.560,EE_trial,05-02-2022,None,
Anusha_EE_trial_2023-04-17_20h19.59.560.csv,,,,,,,1,square,-0.4,0.6,0.3,square.png,-0.4.png,,,,,0,0,0,0,0,12,12,9,,,,,,,,,,,,,,,,,,,,,,,,,,,,,,,,,,,,,,,,,,,,297.0535982,297.518212,297.518212,0.504426787,-0.24,0.02,1,0,0,image_left_es,left,0.6,square,1,1,1,302.7406186,302.7406186,,,Anusha,2,2023-04-17_20h19.59.560,EE_trial,05-02-2022,None,
Anusha_EE_trial_2023-04-17_20h19.59.560.csv,,,,,,,1,square,0.2,0.6,0.2,square.png,0.2.png,,,,,0,0,0,0,0,13,13,13,,,,,,,,,,,,,,,,,,,,,,,,,,,,,,,,,,,,,,,,,,,,303.2708129,303.7274411,303.7274411,0.509911944,0.383333333,0.092222222,1,0,0,image_right_es,right,0.2,0.2,1,1,1,309.4588365,309.4588365,309.9830791,309.9830791,Anusha,2,2023-04-17_20h19.59.560,EE_trial,05-02-2022,None,
Anusha_EE_trial_2023-04-17_20h19.59.560.csv,,,,,,,1,cross,0,0.1,0.5,cross.png,0.png,,,,,0,0,0,0,0,14,14,17,,,,,,,,,,,,,,,,,,,,,,,,,,,,,,,,,,,,,,,,,,,,309.9830791,310.4422695,310.4422695,0.509215442,0.447777778,0.271111111,1,0,0,image_right_es,right,0.5,0,-1,-1,-1,345.3376375,345.3376375,,,Anusha,2,2023-04-17_20h19.59.560,EE_trial,05-02-2022,None,
Anusha_EE_trial_2023-04-17_20h19.59.560.csv,,,,,,,1,square,0,0.6,0.5,square.png,0.png,,,,,0,0,0,0,0,15,15,10,,,,,,,,,,,,,,,,,,,,,,,,,,,,,,,,,,,,,,,,,,,,345.861355,346.3235817,346.3235817,0.499816039,0.127777778,0.081111111,1,0,0,image_right_es,right,0.5,0,-1,-1,-1,350.5660473,350.5660473,351.0835504,351.0835504,Anusha,2,2023-04-17_20h19.59.560,EE_trial,05-02-2022,None,
Anusha_EE_trial_2023-04-17_20h19.59.560.csv,,,,,,,1,circle,-0.4,0.9,0.3,circle.png,-0.4.png,,,,,0,0,0,0,0,16,16,23,,,,,,,,,,,,,,,,,,,,,,,,,,,,,,,,,,,,,,,,,,,,351.0835504,351.5522367,351.5522367,0.49983672,-0.318888889,0.065555556,1,0,0,image_left_es,left,0.9,circle,1,-1,1,354.6194054,354.6194054,,,Anusha,2,2023-04-17_20h19.59.560,EE_trial,05-02-2022,None,
Anusha_EE_trial_2023-04-17_20h19.59.560.csv,,,,,,,1,square,-0.2,0.6,0,square.png,-0.2.png,,,,,0,0,0,0,0,17,17,7,,,,,,,,,,,,,,,,,,,,,,,,,,,,,,,,,,,,,,,,,,,,355.1481968,355.614254,355.614254,0.506097197,-0.318888889,0.065555556,1,0,0,image_left_es,left,0.6,square,1,-1,1,359.0282027,359.0282027,359.5543714,359.5543714,Anusha,2,2023-04-17_20h19.59.560,EE_trial,05-02-2022,None,
Anusha_EE_trial_2023-04-17_20h19.59.560.csv,,,,,,,1,circle,0.4,0.9,0.7,circle.png,0.4.png,,,,,0,0,0,0,0,18,18,25,,,,,,,,,,,,,,,,,,,,,,,,,,,,,,,,,,,,,,,,,,,,359.5543714,360.0186124,360.0186124,0.500865721,-0.318888889,0.065555556,1,0,0,image_left_es,left,0.9,circle,1,1,1,362.2785971,362.2785971,,,Anusha,2,2023-04-17_20h19.59.560,EE_trial,05-02-2022,None,
Anusha_EE_trial_2023-04-17_20h19.59.560.csv,,,,,,,1,cross,0.2,0.1,0.2,cross.png,0.2.png,,,,,0,0,0,0,0,19,19,20,,,,,,,,,,,,,,,,,,,,,,,,,,,,,,,,,,,,,,,,,,,,362.807561,363.2680161,363.2680161,0.499778583,0.035555556,-0.135555556,1,0,0,image_right_es,right,0.2,0.2,-1,-1,-1,368.3886,368.3886,368.9062673,368.9062673,Anusha,2,2023-04-17_20h19.59.560,EE_trial,05-02-2022,None,
Anusha_EE_trial_2023-04-17_20h19.59.560.csv,,,,,,,1,cross,0.4,0.1,0.7,cross.png,0.4.png,,,,,0,0,0,0,0,20,20,18,,,,,,,,,,,,,,,,,,,,,,,,,,,,,,,,,,,,,,,,,,,,368.9062673,369.3786244,369.3786244,0.503793785,0.328888889,-0.16,1,0,0,image_right_es,right,0.7,0.4,1,1,1,373.9804664,373.9804664,374.5041565,374.5041565,Anusha,2,2023-04-17_20h19.59.560,EE_trial,05-02-2022,None,
Anusha_EE_trial_2023-04-17_20h19.59.560.csv,,,,,,,1,cross,0.8,0.1,0.9,cross.png,0.8.png,,,,,0,0,0,0,0,21,21,19,,,,,,,,,,,,,,,,,,,,,,,,,,,,,,,,,,,,,,,,,,,,374.5041565,374.9711815,374.9711815,0.500706036,0.261111111,0.053333333,1,0,0,image_right_es,right,0.9,0.8,-1,1,1,378.6865793,378.6865793,379.2052852,379.2052852,Anusha,2,2023-04-17_20h19.59.560,EE_trial,05-02-2022,None,
Anusha_EE_trial_2023-04-17_20h19.59.560.csv,,,,,,,1,cross,-0.2,0.1,0,cross.png,-0.2.png,,,,,0,0,0,0,0,22,22,14,,,,,,,,,,,,,,,,,,,,,,,,,,,,,,,,,,,,,,,,,,,,379.2052852,379.6714539,379.6714539,0.510332906,0.267777778,-0.126666667,1,0,0,image_right_es,right,0,-0.2,-1,-1,-1,384.2694007,384.2694007,,,Anusha,2,2023-04-17_20h19.59.560,EE_trial,05-02-2022,None,
Anusha_EE_trial_2023-04-17_20h19.59.560.csv,,,,,,,1,square,-0.8,0.6,0.1,square.png,-0.8.png,,,,,0,0,0,0,0,23,23,8,,,,,,,,,,,,,,,,,,,,,,,,,,,,,,,,,,,,,,,,,,,,384.7946586,385.2545882,385.2545882,0.50985239,-0.254444444,-0.034444444,1,0,0,image_left_es,left,0.6,square,1,-1,1,389.1944039,389.1944039,389.7128513,389.7128513,Anusha,2,2023-04-17_20h19.59.560,EE_trial,05-02-2022,None,
Anusha_EE_trial_2023-04-17_20h19.59.560.csv,,,,,,,1,triangle,-0.8,0.4,0.1,triangle.png,-0.8.png,,,,,0,0,0,0,0,24,24,1,,,,,,,,,,,,,,,,,,,,,,,,,,,,,,,,,,,,,,,,,,,,389.7128513,390.1848593,390.1848593,0.500804535,-0.254444444,-0.034444444,1,0,0,image_left_es,left,0.4,triangle,-1,-1,-1,391.9300878,391.9300878,392.4516253,392.4516253,Anusha,2,2023-04-17_20h19.59.560,EE_trial,05-02-2022,None,
Anusha_EE_trial_2023-04-17_20h19.59.560.csv,,,,,,,1,triangle,-0.4,0.4,0.3,triangle.png,-0.4.png,,,,,0,0,0,0,0,25,25,2,,,,,,,,,,,,,,,,,,,,,,,,,,,,,,,,,,,,,,,,,,,,392.4516253,392.9280255,392.9280255,0.506718355,-0.254444444,-0.034444444,1,0,0,image_left_es,left,0.4,triangle,1,1,1,395.3531356,395.3531356,395.8727809,395.8727809,Anusha,2,2023-04-17_20h19.59.560,EE_trial,05-02-2022,None,
Anusha_EE_trial_2023-04-17_20h19.59.560.csv,,,,,,,1,circle,0.2,0.9,0.2,circle.png,0.2.png,,,,,0,0,0,0,0,26,26,27,,,,,,,,,,,,,,,,,,,,,,,,,,,,,,,,,,,,,,,,,,,,395.8727809,396.3394481,396.3394481,0.509345643,-0.254444444,-0.034444444,1,0,0,image_left_es,left,0.9,circle,1,-1,1,397.5848685,397.5848685,398.1006135,398.1006135,Anusha,2,2023-04-17_20h19.59.560,EE_trial,05-02-2022,None,
Anusha_EE_trial_2023-04-17_20h19.59.560.csv,,,,,,,1,circle,-0.2,0.9,0,circle.png,-0.2.png,,,,,0,0,0,0,0,27,27,21,,,,,,,,,,,,,,,,,,,,,,,,,,,,,,,,,,,,,,,,,,,,398.1006135,398.5716873,398.5716873,0.509674788,-0.254444444,-0.034444444,1,0,0,image_left_es,left,0.9,circle,-1,-1,-1,399.86842,399.86842,400.4034886,400.4034886,Anusha,2,2023-04-17_20h19.59.560,EE_trial,05-02-2022,None,
Anusha_EE_trial_2023-04-17_20h19.59.560.csv,,,,,,,1,,,,,,,,,,,0,0,0,0,,,,,,,,,,,,,,,,,,,,,,,,,,,,,,,,,,,,,,,,,,,,,,,,,,,,,,,,,,,,,,,,,,,,Anusha,2,2023-04-17_20h19.59.560,EE_trial,05-02-2022,None,
Anusha_EE_trial_2023-04-17_20h19.59.560.csv,,,,,,,3,triangle,0.4,0.4,0.7,triangle.png,0.4.png,,,,,0,1,1,1,0,0,0,4,,,,,,,,,,,,,,,,,,,,,,,,,,,,,,,,,,,,,,,,,,,,400.4034886,400.8545818,400.8545818,0.509922497,0.146666667,-0.011111111,1,0,0,image_right_es,right,0.7,0.4,1,1,1,407.8643636,407.8643636,408.3832384,408.3832384,Anusha,2,2023-04-17_20h19.59.560,EE_trial,05-02-2022,None,
Anusha_EE_trial_2023-04-17_20h19.59.560.csv,,,,,,,3,square,0.4,0.6,0.7,square.png,0.4.png,,,,,0,1,1,1,0,1,1,11,,,,,,,,,,,,,,,,,,,,,,,,,,,,,,,,,,,,,,,,,,,,408.3832384,408.8506713,408.8506713,0.500098927,0.221111111,-0.213333333,1,0,0,image_right_es,right,0.7,0.4,1,1,1,416.8654948,416.8654948,417.3851143,417.3851143,Anusha,2,2023-04-17_20h19.59.560,EE_trial,05-02-2022,None,
Anusha_EE_trial_2023-04-17_20h19.59.560.csv,,,,,,,3,cross,-0.4,0.1,0.3,cross.png,-0.4.png,,,,,0,1,1,1,0,2,2,16,,,,,,,,,,,,,,,,,,,,,,,,,,,,,,,,,,,,,,,,,,,,417.3851143,417.860858,417.860858,0.507265015,0.431111111,-0.161111111,1,0,0,image_right_es,right,0.3,-0.4,-1,-1,-1,427.0305878,427.0305878,427.5543556,427.5543556,Anusha,2,2023-04-17_20h19.59.560,EE_trial,05-02-2022,None,
Anusha_EE_trial_2023-04-17_20h19.59.560.csv,,,,,,,3,cross,0,0.1,0.5,cross.png,0.png,,,,,0,1,1,1,0,3,3,17,,,,,,,,,,,,,,,,,,,,,,,,,,,,,,,,,,,,,,,,,,,,427.5543556,428.016339,428.016339,0.509498487,0.26,-0.064444444,1,0,0,image_right_es,right,0.5,0,-1,-1,-1,435.8186958,435.8186958,,,Anusha,2,2023-04-17_20h19.59.560,EE_trial,05-02-2022,None,
Anusha_EE_trial_2023-04-17_20h19.59.560.csv,,,,,,,3,triangle,0.8,0.4,0.9,triangle.png,0.8.png,,,,,0,1,1,1,0,4,4,5,,,,,,,,,,,,,,,,,,,,,,,,,,,,,,,,,,,,,,,,,,,,436.34648,436.826728,436.826728,0.50438744,0.218888889,-0.033333333,1,0,0,image_right_es,right,0.9,0.8,-1,1,1,445.3941012,445.3941012,445.9128056,445.9128056,Anusha,2,2023-04-17_20h19.59.560,EE_trial,05-02-2022,None,
Anusha_EE_trial_2023-04-17_20h19.59.560.csv,,,,,,,3,cross,0.8,0.1,0.9,cross.png,0.8.png,,,,,0,1,1,1,0,5,5,19,,,,,,,,,,,,,,,,,,,,,,,,,,,,,,,,,,,,,,,,,,,,445.9128056,446.3839862,446.3839862,0.502719279,0.488888889,0.117777778,1,0,0,image_right_es,right,0.9,0.8,-1,1,1,452.8144058,452.8144058,,,Anusha,2,2023-04-17_20h19.59.560,EE_trial,05-02-2022,None,
Anusha_EE_trial_2023-04-17_20h19.59.560.csv,,,,,,,3,square,0,0.6,0.5,square.png,0.png,,,,,0,1,1,1,0,6,6,10,,,,,,,,,,,,,,,,,,,,,,,,,,,,,,,,,,,,,,,,,,,,453.3380658,453.8012559,453.8012559,0.500180684,0.517777778,0.017777778,1,0,0,image_right_es,right,0.5,0,1,-1,-1,462.6750493,462.6750493,463.2007596,463.2007596,Anusha,2,2023-04-17_20h19.59.560,EE_trial,05-02-2022,None,
Anusha_EE_trial_2023-04-17_20h19.59.560.csv,,,,,,,3,square,0.2,0.6,0.2,square.png,0.2.png,,,,,0,1,1,1,0,7,7,13,,,,,,,,,,,,,,,,,,,,,,,,,,,,,,,,,,,,,,,,,,,,463.2007596,463.6571465,463.6571465,0.50726763,0.021111111,0.182222222,1,0,0,image_right_es,right,0.2,0.2,1,-1,-1,472.1216086,472.1216086,,,Anusha,2,2023-04-17_20h19.59.560,EE_trial,05-02-2022,None,
Anusha_EE_trial_2023-04-17_20h19.59.560.csv,,,,,,,3,square,-0.8,0.6,0.1,square.png,-0.8.png,,,,,0,1,1,1,0,8,8,8,,,,,,,,,,,,,,,,,,,,,,,,,,,,,,,,,,,,,,,,,,,,472.647944,473.1063285,473.1063285,0.509408448,-0.292222222,0.006666667,1,0,0,image_left_es,left,0.6,square,1,-1,1,475.921769,475.921769,476.4499658,476.4499658,Anusha,2,2023-04-17_20h19.59.560,EE_trial,05-02-2022,None,
Anusha_EE_trial_2023-04-17_20h19.59.560.csv,,,,,,,3,circle,0,0.9,0.5,circle.png,0.png,,,,,0,1,1,1,0,9,9,24,,,,,,,,,,,,,,,,,,,,,,,,,,,,,,,,,,,,,,,,,,,,476.4499658,476.9056276,476.9056276,0.506558422,-0.292222222,0.006666667,1,0,0,image_left_es,left,0.9,circle,1,-1,1,477.920124,477.920124,,,Anusha,2,2023-04-17_20h19.59.560,EE_trial,05-02-2022,None,
Anusha_EE_trial_2023-04-17_20h19.59.560.csv,,,,,,,3,triangle,0.2,0.4,0.2,triangle.png,0.2.png,,,,,0,1,1,1,0,10,10,6,,,,,,,,,,,,,,,,,,,,,,,,,,,,,,,,,,,,,,,,,,,,478.4470715,478.9114942,478.9114942,0.502069557,0.411111111,0.148888889,1,0,0,image_right_es,right,0.2,0.2,-1,-1,-1,487.1541172,487.1541172,,,Anusha,2,2023-04-17_20h19.59.560,EE_trial,05-02-2022,None,
Anusha_EE_trial_2023-04-17_20h19.59.560.csv,,,,,,,3,square,-0.2,0.6,0,square.png,-0.2.png,,,,,0,1,1,1,0,11,11,7,,,,,,,,,,,,,,,,,,,,,,,,,,,,,,,,,,,,,,,,,,,,487.6810509,488.1428079,488.1428079,0.503518217,-0.3,-0.002222222,1,0,0,image_left_es,left,0.6,square,1,-1,1,491.2372442,491.2372442,491.7597683,491.7597683,Anusha,2,2023-04-17_20h19.59.560,EE_trial,05-02-2022,None,
Anusha_EE_trial_2023-04-17_20h19.59.560.csv,,,,,,,3,circle,0.8,0.9,0.9,circle.png,0.8.png,,,,,0,1,1,1,0,12,12,26,,,,,,,,,,,,,,,,,,,,,,,,,,,,,,,,,,,,,,,,,,,,491.7597683,492.2261753,492.2261753,0.499273897,-0.3,-0.002222222,1,0,0,image_left_es,left,0.9,circle,1,1,1,493.1312584,493.1312584,493.6575679,493.6575679,Anusha,2,2023-04-17_20h19.59.560,EE_trial,05-02-2022,None,
Anusha_EE_trial_2023-04-17_20h19.59.560.csv,,,,,,,3,triangle,0,0.4,0.5,triangle.png,0.png,,,,,0,1,1,1,0,13,13,3,,,,,,,,,,,,,,,,,,,,,,,,,,,,,,,,,,,,,,,,,,,,493.6575679,494.1171727,494.1171727,0.509089425,-0.3,-0.002222222,1,0,0,image_left_es,left,0.4,triangle,-1,-1,-1,497.4930017,497.4930017,498.0112173,498.0112173,Anusha,2,2023-04-17_20h19.59.560,EE_trial,05-02-2022,None,
Anusha_EE_trial_2023-04-17_20h19.59.560.csv,,,,,,,3,square,0.8,0.6,0.9,square.png,0.8.png,,,,,0,1,1,1,0,14,14,12,,,,,,,,,,,,,,,,,,,,,,,,,,,,,,,,,,,,,,,,,,,,498.0112173,498.492109,498.492109,0.509240342,0.418888889,0.092222222,1,0,0,image_right_es,right,0.9,0.8,1,1,1,512.0827955,512.0827955,512.6050028,512.6050028,Anusha,2,2023-04-17_20h19.59.560,EE_trial,05-02-2022,None,
Anusha_EE_trial_2023-04-17_20h19.59.560.csv,,,,,,,3,square,-0.4,0.6,0.3,square.png,-0.4.png,,,,,0,1,1,1,0,15,15,9,,,,,,,,,,,,,,,,,,,,,,,,,,,,,,,,,,,,,,,,,,,,512.6050028,513.0652206,513.0652206,0.505914986,-0.297777778,-0.006666667,1,0,0,image_left_es,left,0.6,square,1,1,1,515.0596597,515.0596597,515.5767458,515.5767458,Anusha,2,2023-04-17_20h19.59.560,EE_trial,05-02-2022,None,
Anusha_EE_trial_2023-04-17_20h19.59.560.csv,,,,,,,3,triangle,-0.2,0.4,0,triangle.png,-0.2.png,,,,,0,1,1,1,0,16,16,0,,,,,,,,,,,,,,,,,,,,,,,,,,,,,,,,,,,,,,,,,,,,515.5767458,516.0440143,516.0440143,0.506616922,0.505555556,0.047777778,1,0,0,image_right_es,right,0,-0.2,1,-1,-1,531.7961972,531.7961972,,,Anusha,2,2023-04-17_20h19.59.560,EE_trial,05-02-2022,None,
Anusha_EE_trial_2023-04-17_20h19.59.560.csv,,,,,,,3,circle,0.2,0.9,0.2,circle.png,0.2.png,,,,,0,1,1,1,0,17,17,27,,,,,,,,,,,,,,,,,,,,,,,,,,,,,,,,,,,,,,,,,,,,532.3161674,532.7815805,532.7815805,0.499143691,-0.314444444,0.025555556,1,0,0,image_left_es,left,0.9,circle,1,1,1,549.1603131,549.1603131,,,Anusha,2,2023-04-17_20h19.59.560,EE_trial,05-02-2022,None,
Anusha_EE_trial_2023-04-17_20h19.59.560.csv,,,,,,,3,triangle,-0.8,0.4,0.1,triangle.png,-0.8.png,,,,,0,1,1,1,0,18,18,1,,,,,,,,,,,,,,,,,,,,,,,,,,,,,,,,,,,,,,,,,,,,549.6916708,550.1509568,550.1509568,0.505740603,-0.31,0.036666667,1,0,0,image_left_es,left,0.4,triangle,-1,-1,-1,552.2602561,552.2602561,552.7823927,552.7823927,Anusha,2,2023-04-17_20h19.59.560,EE_trial,05-02-2022,None,
Anusha_EE_trial_2023-04-17_20h19.59.560.csv,,,,,,,3,circle,-0.4,0.9,0.3,circle.png,-0.4.png,,,,,0,1,1,1,0,19,19,23,,,,,,,,,,,,,,,,,,,,,,,,,,,,,,,,,,,,,,,,,,,,552.7823927,553.2428067,553.2428067,0.506730496,-0.241111111,0.013333333,1,0,0,image_left_es,left,0.9,circle,1,-1,1,554.7651466,554.7651466,555.2880901,555.2880901,Anusha,2,2023-04-17_20h19.59.560,EE_trial,05-02-2022,None,
Anusha_EE_trial_2023-04-17_20h19.59.560.csv,,,,,,,3,circle,-0.8,0.9,0.1,circle.png,-0.8.png,,,,,0,1,1,1,0,20,20,22,,,,,,,,,,,,,,,,,,,,,,,,,,,,,,,,,,,,,,,,,,,,555.2880901,555.7491079,555.7491079,0.50684009,-0.241111111,0.013333333,1,0,0,image_left_es,left,0.9,circle,1,-1,1,556.7937315,556.7937315,,,Anusha,2,2023-04-17_20h19.59.560,EE_trial,05-02-2022,None,
Anusha_EE_trial_2023-04-17_20h19.59.560.csv,,,,,,,3,cross,-0.8,0.1,0.1,cross.png,-0.8.png,,,,,0,1,1,1,0,21,21,15,,,,,,,,,,,,,,,,,,,,,,,,,,,,,,,,,,,,,,,,,,,,557.322836,557.7820227,557.7820227,0.509911375,-0.241111111,0.013333333,1,0,0,image_left_es,left,0.1,cross,-1,-1,-1,560.4679062,560.4679062,,,Anusha,2,2023-04-17_20h19.59.560,EE_trial,05-02-2022,None,
Anusha_EE_trial_2023-04-17_20h19.59.560.csv,,,,,,,3,cross,0.4,0.1,0.7,cross.png,0.4.png,,,,,0,1,1,1,0,22,22,18,,,,,,,,,,,,,,,,,,,,,,,,,,,,,,,,,,,,,,,,,,,,560.9982165,561.4647074,561.4647074,0.509698825,0.325555556,-0.181111111,1,0,0,image_right_es,right,0.7,0.4,1,1,1,569.6516379,569.6516379,570.1758274,570.1758274,Anusha,2,2023-04-17_20h19.59.560,EE_trial,05-02-2022,None,
Anusha_EE_trial_2023-04-17_20h19.59.560.csv,,,,,,,3,cross,0.2,0.1,0.2,cross.png,0.2.png,,,,,0,1,1,1,0,23,23,20,,,,,,,,,,,,,,,,,,,,,,,,,,,,,,,,,,,,,,,,,,,,570.1758274,570.6463056,570.6463056,0.508376677,0.165555556,-0.048888889,1,0,0,image_right_es,right,0.2,0.2,-1,-1,-1,578.6886121,578.6886121,,,Anusha,2,2023-04-17_20h19.59.560,EE_trial,05-02-2022,None,
Anusha_EE_trial_2023-04-17_20h19.59.560.csv,,,,,,,3,triangle,-0.4,0.4,0.3,triangle.png,-0.4.png,,,,,0,1,1,1,0,24,24,2,,,,,,,,,,,,,,,,,,,,,,,,,,,,,,,,,,,,,,,,,,,,579.2201795,579.6707774,579.6707774,0.510141406,-0.283333333,0.007777778,1,0,0,image_left_es,left,0.4,triangle,1,1,1,609.1557183,609.1557183,,,Anusha,2,2023-04-17_20h19.59.560,EE_trial,05-02-2022,None,
Anusha_EE_trial_2023-04-17_20h19.59.560.csv,,,,,,,3,circle,-0.2,0.9,0,circle.png,-0.2.png,,,,,0,1,1,1,0,25,25,21,,,,,,,,,,,,,,,,,,,,,,,,,,,,,,,,,,,,,,,,,,,,609.6829381,610.137752,610.137752,0.510403312,-0.283333333,0.007777778,1,0,0,image_left_es,left,0.9,circle,1,-1,1,611.3595957,611.3595957,,,Anusha,2,2023-04-17_20h19.59.560,EE_trial,05-02-2022,None,
Anusha_EE_trial_2023-04-17_20h19.59.560.csv,,,,,,,3,cross,-0.2,0.1,0,cross.png,-0.2.png,,,,,0,1,1,1,0,26,26,14,,,,,,,,,,,,,,,,,,,,,,,,,,,,,,,,,,,,,,,,,,,,611.8954336,612.3546797,612.3546797,0.504429723,0.318888889,-0.095555556,1,0,0,image_right_es,right,0,-0.2,-1,-1,-1,618.8772142,618.8772142,,,Anusha,2,2023-04-17_20h19.59.560,EE_trial,05-02-2022,None,
Anusha_EE_trial_2023-04-17_20h19.59.560.csv,,,,,,,3,circle,0.4,0.9,0.7,circle.png,0.4.png,,,,,0,1,1,1,0,27,27,25,,,,,,,,,,,,,,,,,,,,,,,,,,,,,,,,,,,,,,,,,,,,619.4086574,619.8668505,619.8668505,0.502666961,-0.323333333,-0.021111111,1,0,0,image_left_es,left,0.9,circle,1,-1,1,621.2530033,621.2530033,621.8017883,621.8017883,Anusha,2,2023-04-17_20h19.59.560,EE_trial,05-02-2022,None,
Anusha_EE_trial_2023-04-17_20h19.59.560.csv,,,,,,,3,,,,,,,,,,,0,1,1,1,,,,,,,,,,,,,,,,,,,,,,,,,,,,,,,,,,,,,,,,,,,,,,,,,,,,,,,,,,,,,,,,,,,,Anusha,2,2023-04-17_20h19.59.560,EE_trial,05-02-2022,None,
Anusha_EE_trial_2023-04-17_20h19.59.560.csv,,,,,,,5,cross,0.4,0.1,0.7,cross.png,0.4.png,,,,,0,2,2,2,0,0,0,18,,,,,,,,,,,,,,,,,,,,,,,,,,,,,,,,,,,,,,,,,,,,621.8017883,622.2381581,622.2381581,0.507820772,0.225555556,0.272222222,1,0,0,image_right_es,right,0.7,0.4,-1,-1,-1,630.2216472,630.2216472,,,Anusha,2,2023-04-17_20h19.59.560,EE_trial,05-02-2022,None,
Anusha_EE_trial_2023-04-17_20h19.59.560.csv,,,,,,,5,triangle,0,0.4,0.5,triangle.png,0.png,,,,,0,2,2,2,0,1,1,3,,,,,,,,,,,,,,,,,,,,,,,,,,,,,,,,,,,,,,,,,,,,630.7471257,631.20148,631.20148,0.506938793,0.451111111,-0.122222222,1,0,0,image_right_es,right,0.5,0,-1,-1,-1,642.1211973,642.1211973,642.6438857,642.6438857,Anusha,2,2023-04-17_20h19.59.560,EE_trial,05-02-2022,None,
Anusha_EE_trial_2023-04-17_20h19.59.560.csv,,,,,,,5,triangle,-0.8,0.4,0.1,triangle.png,-0.8.png,,,,,0,2,2,2,0,2,2,1,,,,,,,,,,,,,,,,,,,,,,,,,,,,,,,,,,,,,,,,,,,,642.6438857,643.1026891,643.1026891,0.507879295,-0.301111111,0.021111111,1,0,0,image_left_es,left,0.4,triangle,-1,-1,-1,645.3338485,645.3338485,645.8582342,645.8582342,Anusha,2,2023-04-17_20h19.59.560,EE_trial,05-02-2022,None,
Anusha_EE_trial_2023-04-17_20h19.59.560.csv,,,,,,,5,cross,0.8,0.1,0.9,cross.png,0.8.png,,,,,0,2,2,2,0,3,3,19,,,,,,,,,,,,,,,,,,,,,,,,,,,,,,,,,,,,,,,,,,,,645.8582342,646.3195689,646.3195689,0.508362606,0.481111111,0.084444444,1,0,0,image_right_es,right,0.9,0.8,-1,1,1,654.434047,654.434047,,,Anusha,2,2023-04-17_20h19.59.560,EE_trial,05-02-2022,None,
Anusha_EE_trial_2023-04-17_20h19.59.560.csv,,,,,,,5,cross,-0.4,0.1,0.3,cross.png,-0.4.png,,,,,0,2,2,2,0,4,4,16,,,,,,,,,,,,,,,,,,,,,,,,,,,,,,,,,,,,,,,,,,,,654.9592866,655.4233591,655.4233591,0.503585605,-0.297777778,0.032222222,1,0,0,image_left_es,left,0.1,cross,-1,-1,-1,657.4442087,657.4442087,657.9737956,657.9737956,Anusha,2,2023-04-17_20h19.59.560,EE_trial,05-02-2022,None,
Anusha_EE_trial_2023-04-17_20h19.59.560.csv,,,,,,,5,triangle,-0.4,0.4,0.3,triangle.png,-0.4.png,,,,,0,2,2,2,0,5,5,2,,,,,,,,,,,,,,,,,,,,,,,,,,,,,,,,,,,,,,,,,,,,657.9737956,658.4324409,658.4324409,0.512373167,-0.297777778,0.032222222,1,0,0,image_left_es,left,0.4,triangle,-1,-1,-1,661.0922776,661.0922776,661.613395,661.613395,Anusha,2,2023-04-17_20h19.59.560,EE_trial,05-02-2022,None,
Anusha_EE_trial_2023-04-17_20h19.59.560.csv,,,,,,,5,circle,-0.2,0.9,0,circle.png,-0.2.png,,,,,0,2,2,2,0,6,6,21,,,,,,,,,,,,,,,,,,,,,,,,,,,,,,,,,,,,,,,,,,,,661.613395,662.0821152,662.0821152,0.50018828,-0.297777778,0.032222222,1,0,0,image_left_es,left,0.9,circle,1,-1,1,664.4535509,664.4535509,,,Anusha,2,2023-04-17_20h19.59.560,EE_trial,05-02-2022,None,
Anusha_EE_trial_2023-04-17_20h19.59.560.csv,,,,,,,5,square,0.2,0.6,0.2,square.png,0.2.png,,,,,0,2,2,2,0,7,7,13,,,,,,,,,,,,,,,,,,,,,,,,,,,,,,,,,,,,,,,,,,,,664.9893438,665.4391704,665.4391704,0.501733392,0.061111111,0.285555556,1,0,0,image_right_es,right,0.2,0.2,1,-1,-1,678.2541728,678.2541728,,,Anusha,2,2023-04-17_20h19.59.560,EE_trial,05-02-2022,None,
Anusha_EE_trial_2023-04-17_20h19.59.560.csv,,,,,,,5,triangle,0.8,0.4,0.9,triangle.png,0.8.png,,,,,0,2,2,2,0,8,8,5,,,,,,,,,,,,,,,,,,,,,,,,,,,,,,,,,,,,,,,,,,,,678.7797123,679.235683,679.235683,0.5083908,0.056666667,0.116666667,1,0,0,image_right_es,right,0.9,0.8,-1,1,1,717.5259741,717.5259741,,,Anusha,2,2023-04-17_20h19.59.560,EE_trial,05-02-2022,None,
Anusha_EE_trial_2023-04-17_20h19.59.560.csv,,,,,,,5,triangle,0.2,0.4,0.2,triangle.png,0.2.png,,,,,0,2,2,2,0,9,9,6,,,,,,,,,,,,,,,,,,,,,,,,,,,,,,,,,,,,,,,,,,,,718.0542085,718.5159974,718.5159974,0.502799267,0.432222222,-0.085555556,1,0,0,image_right_es,right,0.2,0.2,-1,-1,-1,729.8267987,729.8267987,730.3500828,730.3500828,Anusha,2,2023-04-17_20h19.59.560,EE_trial,05-02-2022,None,
Anusha_EE_trial_2023-04-17_20h19.59.560.csv,,,,,,,5,circle,0,0.9,0.5,circle.png,0.png,,,,,0,2,2,2,0,10,10,24,,,,,,,,,,,,,,,,,,,,,,,,,,,,,,,,,,,,,,,,,,,,730.3500828,730.8076813,730.8076813,0.506423533,-0.304444444,-0.032222222,1,0,0,image_left_es,left,0.9,circle,1,1,1,732.1739514,732.1739514,732.6943388,732.6943388,Anusha,2,2023-04-17_20h19.59.560,EE_trial,05-02-2022,None,
Anusha_EE_trial_2023-04-17_20h19.59.560.csv,,,,,,,5,cross,0,0.1,0.5,cross.png,0.png,,,,,0,2,2,2,0,11,11,17,,,,,,,,,,,,,,,,,,,,,,,,,,,,,,,,,,,,,,,,,,,,732.6943388,733.1657456,733.1657456,0.502890787,0.366666667,-0.053333333,1,0,0,image_right_es,right,0.5,0,-1,1,1,743.5807105,743.5807105,744.1033468,744.1033468,Anusha,2,2023-04-17_20h19.59.560,EE_trial,05-02-2022,None,
Anusha_EE_trial_2023-04-17_20h19.59.560.csv,,,,,,,5,square,-0.8,0.6,0.1,square.png,-0.8.png,,,,,0,2,2,2,0,12,12,8,,,,,,,,,,,,,,,,,,,,,,,,,,,,,,,,,,,,,,,,,,,,744.1033468,744.5692623,744.5692623,0.502374189,-0.288888889,-0.003333333,1,0,0,image_left_es,left,0.6,square,-1,-1,-1,746.9850643,746.9850643,747.5071901,747.5071901,Anusha,2,2023-04-17_20h19.59.560,EE_trial,05-02-2022,None,
Anusha_EE_trial_2023-04-17_20h19.59.560.csv,,,,,,,5,square,-0.2,0.6,0,square.png,-0.2.png,,,,,0,2,2,2,0,13,13,7,,,,,,,,,,,,,,,,,,,,,,,,,,,,,,,,,,,,,,,,,,,,747.5071901,747.9731411,747.9731411,0.49929277,-0.288888889,-0.003333333,1,0,0,image_left_es,left,0.6,square,1,-1,1,755.5385991,755.5385991,,,Anusha,2,2023-04-17_20h19.59.560,EE_trial,05-02-2022,None,
Anusha_EE_trial_2023-04-17_20h19.59.560.csv,,,,,,,5,circle,0.2,0.9,0.2,circle.png,0.2.png,,,,,0,2,2,2,0,14,14,27,,,,,,,,,,,,,,,,,,,,,,,,,,,,,,,,,,,,,,,,,,,,756.0601556,756.5250602,756.5250602,0.5019112,-0.288888889,-0.003333333,1,0,0,image_left_es,left,0.9,circle,1,1,1,759.9494563,759.9494563,,,Anusha,2,2023-04-17_20h19.59.560,EE_trial,05-02-2022,None,
Anusha_EE_trial_2023-04-17_20h19.59.560.csv,,,,,,,5,square,-0.4,0.6,0.3,square.png,-0.4.png,,,,,0,2,2,2,0,15,15,9,,,,,,,,,,,,,,,,,,,,,,,,,,,,,,,,,,,,,,,,,,,,760.4784996,760.9360816,760.9360816,0.509544845,-0.288888889,-0.003333333,1,0,0,image_left_es,left,0.6,square,1,1,1,763.6284827,763.6284827,764.1527425,764.1527425,Anusha,2,2023-04-17_20h19.59.560,EE_trial,05-02-2022,None,
Anusha_EE_trial_2023-04-17_20h19.59.560.csv,,,,,,,5,cross,-0.2,0.1,0,cross.png,-0.2.png,,,,,0,2,2,2,0,16,16,14,,,,,,,,,,,,,,,,,,,,,,,,,,,,,,,,,,,,,,,,,,,,764.1527425,764.622717,764.622717,0.504431578,0.24,0.175555556,1,0,0,image_right_es,right,0,-0.2,-1,-1,-1,776.6518975,776.6518975,,,Anusha,2,2023-04-17_20h19.59.560,EE_trial,05-02-2022,None,
Anusha_EE_trial_2023-04-17_20h19.59.560.csv,,,,,,,5,triangle,0.4,0.4,0.7,triangle.png,0.4.png,,,,,0,2,2,2,0,17,17,4,,,,,,,,,,,,,,,,,,,,,,,,,,,,,,,,,,,,,,,,,,,,777.18803,777.6456158,777.6456158,0.509775741,0.05,-0.002222222,1,0,0,image_right_es,right,0.7,0.4,-1,1,1,790.8224884,790.8224884,791.346199,791.346199,Anusha,2,2023-04-17_20h19.59.560,EE_trial,05-02-2022,None,
Anusha_EE_trial_2023-04-17_20h19.59.560.csv,,,,,,,5,circle,0.4,0.9,0.7,circle.png,0.4.png,,,,,0,2,2,2,0,18,18,25,,,,,,,,,,,,,,,,,,,,,,,,,,,,,,,,,,,,,,,,,,,,791.346199,791.8069893,791.8069893,0.509286895,-0.251111111,-0.004444444,1,0,0,image_left_es,left,0.9,circle,1,1,1,800.0756028,800.0756028,800.6025253,800.6025253,Anusha,2,2023-04-17_20h19.59.560,EE_trial,05-02-2022,None,
Anusha_EE_trial_2023-04-17_20h19.59.560.csv,,,,,,,5,square,0.8,0.6,0.9,square.png,0.8.png,,,,,0,2,2,2,0,19,19,12,,,,,,,,,,,,,,,,,,,,,,,,,,,,,,,,,,,,,,,,,,,,800.6025253,801.0670083,801.0670083,0.50392563,0.072222222,-0.19,1,0,0,image_right_es,right,0.9,0.8,1,1,1,853.5513298,853.5513298,854.0773122,854.0773122,Anusha,2,2023-04-17_20h19.59.560,EE_trial,05-02-2022,None,
Anusha_EE_trial_2023-04-17_20h19.59.560.csv,,,,,,,5,triangle,-0.2,0.4,0,triangle.png,-0.2.png,,,,,0,2,2,2,0,20,20,0,,,,,,,,,,,,,,,,,,,,,,,,,,,,,,,,,,,,,,,,,,,,854.0773122,854.5421295,854.5421295,0.503484339,-0.288888889,0.012222222,1,0,0,image_left_es,left,0.4,triangle,-1,-1,-1,856.7883629,856.7883629,857.3125897,857.3125897,Anusha,2,2023-04-17_20h19.59.560,EE_trial,05-02-2022,None,
Anusha_EE_trial_2023-04-17_20h19.59.560.csv,,,,,,,5,circle,-0.4,0.9,0.3,circle.png,-0.4.png,,,,,0,2,2,2,0,21,21,23,,,,,,,,,,,,,,,,,,,,,,,,,,,,,,,,,,,,,,,,,,,,857.3125897,857.7809253,857.7809253,0.504681566,-0.288888889,0.012222222,1,0,0,image_left_es,left,0.9,circle,1,1,1,858.833872,858.833872,859.3591676,859.3591676,Anusha,2,2023-04-17_20h19.59.560,EE_trial,05-02-2022,None,
Anusha_EE_trial_2023-04-17_20h19.59.560.csv,,,,,,,5,cross,-0.8,0.1,0.1,cross.png,-0.8.png,,,,,0,2,2,2,0,22,22,15,,,,,,,,,,,,,,,,,,,,,,,,,,,,,,,,,,,,,,,,,,,,859.3591676,859.8222278,859.8222278,0.499476696,-0.314444444,-0.032222222,1,0,0,image_left_es,left,0.1,cross,-1,-1,-1,873.409949,873.409949,,,Anusha,2,2023-04-17_20h19.59.560,EE_trial,05-02-2022,None,
Anusha_EE_trial_2023-04-17_20h19.59.560.csv,,,,,,,5,circle,0.8,0.9,0.9,circle.png,0.8.png,,,,,0,2,2,2,0,23,23,26,,,,,,,,,,,,,,,,,,,,,,,,,,,,,,,,,,,,,,,,,,,,873.9343833,874.3989142,874.3989142,0.501479029,-0.282222222,-0.003333333,1,0,0,image_left_es,left,0.9,circle,1,1,1,882.8056882,882.8056882,,,Anusha,2,2023-04-17_20h19.59.560,EE_trial,05-02-2022,None,
Anusha_EE_trial_2023-04-17_20h19.59.560.csv,,,,,,,5,cross,0.2,0.1,0.2,cross.png,0.2.png,,,,,0,2,2,2,0,24,24,20,,,,,,,,,,,,,,,,,,,,,,,,,,,,,,,,,,,,,,,,,,,,883.3345872,883.7954109,883.7954109,0.503500534,0.05,0.138888889,1,0,0,image_right_es,right,0.2,0.2,-1,-1,-1,895.5991421,895.5991421,,,Anusha,2,2023-04-17_20h19.59.560,EE_trial,05-02-2022,None,
Anusha_EE_trial_2023-04-17_20h19.59.560.csv,,,,,,,5,square,0,0.6,0.5,square.png,0.png,,,,,0,2,2,2,0,25,25,10,,,,,,,,,,,,,,,,,,,,,,,,,,,,,,,,,,,,,,,,,,,,896.1262278,896.5872031,896.5872031,0.501696231,0.368888889,-0.133333333,1,0,0,image_right_es,right,0.5,0,1,1,1,926.2808687,926.2808687,926.8049013,926.8049013,Anusha,2,2023-04-17_20h19.59.560,EE_trial,05-02-2022,None,
Anusha_EE_trial_2023-04-17_20h19.59.560.csv,,,,,,,5,circle,-0.8,0.9,0.1,circle.png,-0.8.png,,,,,0,2,2,2,0,26,26,22,,,,,,,,,,,,,,,,,,,,,,,,,,,,,,,,,,,,,,,,,,,,926.8049013,927.2711738,927.2711738,0.504386723,-0.344444444,-0.068888889,1,0,0,image_left_es,left,0.9,circle,1,-1,1,932.2877135,932.2877135,932.8131782,932.8131782,Anusha,2,2023-04-17_20h19.59.560,EE_trial,05-02-2022,None,
Anusha_EE_trial_2023-04-17_20h19.59.560.csv,,,,,,,5,square,0.4,0.6,0.7,square.png,0.4.png,,,,,0,2,2,2,0,27,27,11,,,,,,,,,,,,,,,,,,,,,,,,,,,,,,,,,,,,,,,,,,,,932.8131782,933.2781098,933.2781098,0.501160113,0.418888889,0.18,1,0,0,image_right_es,right,0.7,0.4,-1,-1,-1,959.4529555,959.4529555,,,Anusha,2,2023-04-17_20h19.59.560,EE_trial,05-02-2022,None,
Anusha_EE_trial_2023-04-17_20h19.59.560.csv,,,,,,,5,,,,,,,,,,,0,2,2,2,,,,,,,,,,,,,,,,,,,,,,,,,,,,,,,,,,,,,,,,,,,,,,,,,,,,,,,,,,,,,,,,,,,,Anusha,2,2023-04-17_20h19.59.560,EE_trial,05-02-2022,None,
Ayush _EE_trial_2023-04-18_18h02.35.346.csv,,,,,,,,,,,,,,,,,,,,,,,,,,44.2767583,44.2767583,44.2767583,44.2767583,space,1.193872,,,,,,,,,,,,,,,,,,,,,,,,,,,,,,,,,,,,,,,,,,,,,,,,,,,,,,,,,,Ayush ,1,2023-04-18_18h02.35.346,EE_trial,05-02-2022,59.95789756482209,
Ayush _EE_trial_2023-04-18_18h02.35.346.csv,,,,,,,,,,,,,,,,,,,,,,,,,,,,,,,,45.5256266,45.5256266,45.5256266,45.5256266,space,11.5007274,,,,,,,,,,,,,,,,,,,,,,,,,,,,,,,,,,,,,,,,,,,,,,,,,,,,Ayush ,1,2023-04-18_18h02.35.346,EE_trial,05-02-2022,59.95789756482209,
Ayush _EE_trial_2023-04-18_18h02.35.346.csv,,,,,,,,,,,,,,,,,,,,,,,,,,,,,,,,,,,,,,57.0600088,57.0600088,57.0600088,57.0600088,space,0.0935786,,,,,,,,,,,,,,,,,,,,,,,,,,,,,,,,,,,,,,,,,,,,,,Ayush ,1,2023-04-18_18h02.35.346,EE_trial,05-02-2022,59.95789756482209,
Ayush _EE_trial_2023-04-18_18h02.35.346.csv,square,triangle,0.6,0.4,square.png,triangle.png,,,,,,,,0,0,0,1,,,,,,,,,,,,,,,,,,,,,,,,,,,57.213248,57.6648938,57.6648938,0.5082402,-0.35462963,-0.063888889,1,0,0,image_left,left,0.6,square,1,1,1,58.4712861,58.4712861,58.4712861,,,,,,,,,,,,,,,,,,,,,,,,,,,Ayush ,1,2023-04-18_18h02.35.346,EE_trial,05-02-2022,59.95789756482209,
Ayush _EE_trial_2023-04-18_18h02.35.346.csv,cross,circle,0.1,0.9,cross.png,circle.png,,,,,,,,0,1,1,2,,,,,,,,,,,,,,,,,,,,,,,,,,,59.4433446,59.9125588,59.9125588,0.5050376,0.347222222,-0.02037037,1,0,0,image_right,right,0.9,circle,-1,-1,-1,61.4130637,61.4130637,61.4130637,,,,,,,,,,,,,,,,,,,,,,,,,,,Ayush ,1,2023-04-18_18h02.35.346,EE_trial,05-02-2022,59.95789756482209,
Ayush _EE_trial_2023-04-18_18h02.35.346.csv,square,triangle,0.6,0.4,square.png,triangle.png,,,,,,,,0,2,2,1,,,,,,,,,,,,,,,,,,,,,,,,,,,62.4135715,62.8938017,62.8938017,0.5117072,-0.248148148,0.030555556,1,0,0,image_left,left,0.6,square,1,1,1,64.0270414,64.0270414,64.0270414,,,,,,,,,,,,,,,,,,,,,,,,,,,Ayush ,1,2023-04-18_18h02.35.346,EE_trial,05-02-2022,59.95789756482209,
Ayush _EE_trial_2023-04-18_18h02.35.346.csv,circle,cross,0.9,0.1,circle.png,cross.png,,,,,,,,0,3,3,3,,,,,,,,,,,,,,,,,,,,,,,,,,,65.0364164,65.5101209,65.5101209,0.5100442,-0.273148148,0.013888889,1,0,0,image_left,left,0.9,circle,1,-1,1,66.1842934,66.1842934,66.1842934,,,,,,,,,,,,,,,,,,,,,,,,,,,Ayush ,1,2023-04-18_18h02.35.346,EE_trial,05-02-2022,59.95789756482209,
Ayush _EE_trial_2023-04-18_18h02.35.346.csv,cross,circle,0.1,0.9,cross.png,circle.png,,,,,,,,1,0,4,2,,,,,,,,,,,,,,,,,,,,,,,,,,,67.2018944,67.6761676,67.6761676,0.5115084,0.309259259,-0.002777778,1,0,0,image_right,right,0.9,circle,-1,1,1,68.7145493,68.7145493,68.7145493,,,,,,,,,,,,,,,,,,,,,,,,,,,Ayush ,1,2023-04-18_18h02.35.346,EE_trial,05-02-2022,59.95789756482209,
Ayush _EE_trial_2023-04-18_18h02.35.346.csv,circle,cross,0.9,0.1,circle.png,cross.png,,,,,,,,1,1,5,3,,,,,,,,,,,,,,,,,,,,,,,,,,,69.7313279,70.2114032,70.2114032,0.5161019,-0.209259259,-0.005555556,1,0,0,image_left,left,0.9,circle,-1,-1,-1,71.1992665,71.1992665,71.1992665,,,,,,,,,,,,,,,,,,,,,,,,,,,Ayush ,1,2023-04-18_18h02.35.346,EE_trial,05-02-2022,59.95789756482209,
Ayush _EE_trial_2023-04-18_18h02.35.346.csv,square,triangle,0.6,0.4,square.png,triangle.png,,,,,,,,1,2,6,1,,,,,,,,,,,,,,,,,,,,,,,,,,,72.2115004,72.692242,72.692242,0.5127081,-0.27962963,-0.035185185,1,0,0,image_left,left,0.6,square,1,1,1,73.4402516,73.4402516,73.4402516,,,,,,,,,,,,,,,,,,,,,,,,,,,Ayush ,1,2023-04-18_18h02.35.346,EE_trial,05-02-2022,59.95789756482209,
Ayush _EE_trial_2023-04-18_18h02.35.346.csv,cross,circle,0.1,0.9,cross.png,circle.png,,,,,,,,1,3,7,2,,,,,,,,,,,,,,,,,,,,,,,,,,,74.4457237,74.9254761,74.9254761,0.510964,0.234259259,0.001851852,1,0,0,image_right,right,0.9,circle,-1,1,1,75.8389949,75.8389949,75.8389949,,,,,,,,,,,,,,,,,,,,,,,,,,,Ayush ,1,2023-04-18_18h02.35.346,EE_trial,05-02-2022,59.95789756482209,
Ayush _EE_trial_2023-04-18_18h02.35.346.csv,triangle,square,0.4,0.6,triangle.png,square.png,,,,,,,,2,0,8,0,,,,,,,,,,,,,,,,,,,,,,,,,,,76.8458202,77.3248946,77.3248946,0.5114645,-0.337037037,0.012037037,1,0,0,image_left,left,0.4,triangle,1,1,1,78.1215889,78.1215889,78.1215889,,,,,,,,,,,,,,,,,,,,,,,,,,,Ayush ,1,2023-04-18_18h02.35.346,EE_trial,05-02-2022,59.95789756482209,
Ayush _EE_trial_2023-04-18_18h02.35.346.csv,square,triangle,0.6,0.4,square.png,triangle.png,,,,,,,,2,1,9,1,,,,,,,,,,,,,,,,,,,,,,,,,,,79.129048,79.6078352,79.6078352,0.5106718,-0.365740741,-0.052777778,1,0,0,image_left,left,0.6,square,1,1,1,80.4988296,80.4988296,80.4988296,,,,,,,,,,,,,,,,,,,,,,,,,,,Ayush ,1,2023-04-18_18h02.35.346,EE_trial,05-02-2022,59.95789756482209,
Ayush _EE_trial_2023-04-18_18h02.35.346.csv,circle,cross,0.9,0.1,circle.png,cross.png,,,,,,,,2,2,10,3,,,,,,,,,,,,,,,,,,,,,,,,,,,81.512117,81.9933945,81.9933945,0.5144584,-0.325925926,-0.024074074,1,0,0,image_left,left,0.9,circle,1,-1,1,82.7134403,82.7134403,82.7134403,,,,,,,,,,,,,,,,,,,,,,,,,,,Ayush ,1,2023-04-18_18h02.35.346,EE_trial,05-02-2022,59.95789756482209,
Ayush _EE_trial_2023-04-18_18h02.35.346.csv,cross,circle,0.1,0.9,cross.png,circle.png,,,,,,,,2,3,11,2,,,,,,,,,,,,,,,,,,,,,,,,,,,83.7263119,84.2082201,84.2082201,0.5139213,0.376851852,0.000925926,1,0,0,image_right,right,0.9,circle,-1,1,1,85.1323281,85.1323281,85.1323281,,,,,,,,,,,,,,,,,,,,,,,,,,,Ayush ,1,2023-04-18_18h02.35.346,EE_trial,05-02-2022,59.95789756482209,
Ayush _EE_trial_2023-04-18_18h02.35.346.csv,square,triangle,0.6,0.4,square.png,triangle.png,,,,,,,,3,0,12,1,,,,,,,,,,,,,,,,,,,,,,,,,,,86.1429545,86.6265696,86.6265696,0.5152391,-0.286111111,-0.000925926,1,0,0,image_left,left,0.6,square,-1,-1,-1,87.287697,87.287697,87.287697,,,,,,,,,,,,,,,,,,,,,,,,,,,Ayush ,1,2023-04-18_18h02.35.346,EE_trial,05-02-2022,59.95789756482209,
Ayush _EE_trial_2023-04-18_18h02.35.346.csv,triangle,square,0.4,0.6,triangle.png,square.png,,,,,,,,3,1,13,0,,,,,,,,,,,,,,,,,,,,,,,,,,,88.2935859,88.7749449,88.7749449,0.5145136,0.334259259,0.011111111,1,0,0,image_right,right,0.6,square,-1,-1,-1,89.8604494,89.8604494,89.8604494,,,,,,,,,,,,,,,,,,,,,,,,,,,Ayush ,1,2023-04-18_18h02.35.346,EE_trial,05-02-2022,59.95789756482209,
Ayush _EE_trial_2023-04-18_18h02.35.346.csv,cross,circle,0.1,0.9,cross.png,circle.png,,,,,,,,3,2,14,2,,,,,,,,,,,,,,,,,,,,,,,,,,,90.8774325,91.344629,91.344629,0.5027554,0.350925926,0.022222222,1,0,0,image_right,right,0.9,circle,1,1,1,92.2450227,92.2450227,92.2450227,,,,,,,,,,,,,,,,,,,,,,,,,,,Ayush ,1,2023-04-18_18h02.35.346,EE_trial,05-02-2022,59.95789756482209,
Ayush _EE_trial_2023-04-18_18h02.35.346.csv,square,triangle,0.6,0.4,square.png,triangle.png,,,,,,,,3,3,15,1,,,,,,,,,,,,,,,,,,,,,,,,,,,93.2616915,93.7294637,93.7294637,0.5033486,-0.331481481,-0.035185185,1,0,0,image_left,left,0.6,square,1,-1,1,94.3470293,94.3470293,94.3470293,,,,,,,,,,,,,,,,,,,,,,,,,,,Ayush ,1,2023-04-18_18h02.35.346,EE_trial,05-02-2022,59.95789756482209,
Ayush _EE_trial_2023-04-18_18h02.35.346.csv,triangle,square,0.4,0.6,triangle.png,square.png,,,,,,,,4,0,16,0,,,,,,,,,,,,,,,,,,,,,,,,,,,95.3620078,95.8439543,95.8439543,0.5177627,0.240740741,0.02962963,1,0,0,image_right,right,0.6,square,1,1,1,96.8591647,96.8591647,96.8591647,,,,,,,,,,,,,,,,,,,,,,,,,,,Ayush ,1,2023-04-18_18h02.35.346,EE_trial,05-02-2022,59.95789756482209,
Ayush _EE_trial_2023-04-18_18h02.35.346.csv,triangle,square,0.4,0.6,triangle.png,square.png,,,,,,,,4,1,17,0,,,,,,,,,,,,,,,,,,,,,,,,,,,97.8640257,98.3408969,98.3408969,0.4998481,0.363888889,0.040740741,1,0,0,image_right,right,0.6,square,1,1,1,99.5789733,99.5789733,99.5789733,,,,,,,,,,,,,,,,,,,,,,,,,,,Ayush ,1,2023-04-18_18h02.35.346,EE_trial,05-02-2022,59.95789756482209,
Ayush _EE_trial_2023-04-18_18h02.35.346.csv,cross,circle,0.1,0.9,cross.png,circle.png,,,,,,,,4,2,18,2,,,,,,,,,,,,,,,,,,,,,,,,,,,100.6107662,101.072032,101.072032,0.5131836,0.34537037,0.037037037,1,0,0,image_right,right,0.9,circle,-1,1,1,101.7871764,101.7871764,101.7871764,,,,,,,,,,,,,,,,,,,,,,,,,,,Ayush ,1,2023-04-18_18h02.35.346,EE_trial,05-02-2022,59.95789756482209,
Ayush _EE_trial_2023-04-18_18h02.35.346.csv,triangle,square,0.4,0.6,triangle.png,square.png,,,,,,,,4,3,19,0,,,,,,,,,,,,,,,,,,,,,,,,,,,102.7970936,103.2718761,103.2718761,0.5123987,0.332407407,0.033333333,1,0,0,image_right,right,0.6,square,1,1,1,103.9705144,103.9705144,103.9705144,,,,,,,,,,,,,,,,,,,,,,,,,,,Ayush ,1,2023-04-18_18h02.35.346,EE_trial,05-02-2022,59.95789756482209,
Ayush _EE_trial_2023-04-18_18h02.35.346.csv,cross,circle,0.1,0.9,cross.png,circle.png,,,,,,,,5,0,20,2,,,,,,,,,,,,,,,,,,,,,,,,,,,104.9749246,105.4555341,105.4555341,0.5092854,0.331481481,0.019444444,1,0,0,image_right,right,0.9,circle,-1,1,1,106.1847408,106.1847408,106.1847408,,,,,,,,,,,,,,,,,,,,,,,,,,,Ayush ,1,2023-04-18_18h02.35.346,EE_trial,05-02-2022,59.95789756482209,
Ayush _EE_trial_2023-04-18_18h02.35.346.csv,circle,cross,0.9,0.1,circle.png,cross.png,,,,,,,,5,1,21,3,,,,,,,,,,,,,,,,,,,,,,,,,,,107.1916815,107.6705146,107.6705146,0.5093332,-0.210185185,-0.017592593,1,0,0,image_left,left,0.9,circle,1,-1,1,108.5502166,108.5502166,108.5502166,,,,,,,,,,,,,,,,,,,,,,,,,,,Ayush ,1,2023-04-18_18h02.35.346,EE_trial,05-02-2022,59.95789756482209,
Ayush _EE_trial_2023-04-18_18h02.35.346.csv,square,triangle,0.6,0.4,square.png,triangle.png,,,,,,,,5,2,22,1,,,,,,,,,,,,,,,,,,,,,,,,,,,109.5573981,110.0370455,110.0370455,0.509306,-0.313888889,-0.028703704,1,0,0,image_left,left,0.6,square,1,-1,1,110.7415138,110.7415138,110.7415138,,,,,,,,,,,,,,,,,,,,,,,,,,,Ayush ,1,2023-04-18_18h02.35.346,EE_trial,05-02-2022,59.95789756482209,
Ayush _EE_trial_2023-04-18_18h02.35.346.csv,circle,cross,0.9,0.1,circle.png,cross.png,,,,,,,,5,3,23,3,,,,,,,,,,,,,,,,,,,,,,,,,,,111.7607743,112.2212926,112.2212926,0.5149919,-0.313888889,-0.028703704,1,0,0,image_left,left,0.9,circle,1,-1,1,112.7580746,112.7580746,112.7580746,,,,,,,,,,,,,,,,,,,,,,,,,,,Ayush ,1,2023-04-18_18h02.35.346,EE_trial,05-02-2022,59.95789756482209,
Ayush _EE_trial_2023-04-18_18h02.35.346.csv,triangle,square,0.4,0.6,triangle.png,square.png,,,,,,,,6,0,24,0,,,,,,,,,,,,,,,,,,,,,,,,,,,113.7733979,114.238343,114.238343,0.4991021,0.282407407,-0.008333333,1,0,0,image_right,right,0.6,square,-1,-1,-1,115.2266373,115.2266373,115.2266373,,,,,,,,,,,,,,,,,,,,,,,,,,,Ayush ,1,2023-04-18_18h02.35.346,EE_trial,05-02-2022,59.95789756482209,
Ayush _EE_trial_2023-04-18_18h02.35.346.csv,square,triangle,0.6,0.4,square.png,triangle.png,,,,,,,,6,1,25,1,,,,,,,,,,,,,,,,,,,,,,,,,,,116.2246738,116.7062625,116.7062625,0.5133959,-0.263888889,0.006481481,1,0,0,image_left,left,0.6,square,-1,-1,-1,117.3580567,117.3580567,117.3580567,,,,,,,,,,,,,,,,,,,,,,,,,,,Ayush ,1,2023-04-18_18h02.35.346,EE_trial,05-02-2022,59.95789756482209,
Ayush _EE_trial_2023-04-18_18h02.35.346.csv,cross,circle,0.1,0.9,cross.png,circle.png,,,,,,,,6,2,26,2,,,,,,,,,,,,,,,,,,,,,,,,,,,118.3821348,118.8553698,118.8553698,0.5150297,0.297222222,-0.024074074,1,0,0,image_right,right,0.9,circle,-1,1,1,120.0062673,120.0062673,120.0062673,,,,,,,,,,,,,,,,,,,,,,,,,,,Ayush ,1,2023-04-18_18h02.35.346,EE_trial,05-02-2022,59.95789756482209,
Ayush _EE_trial_2023-04-18_18h02.35.346.csv,circle,cross,0.9,0.1,circle.png,cross.png,,,,,,,,6,3,27,3,,,,,,,,,,,,,,,,,,,,,,,,,,,121.0120605,121.4872253,121.4872253,0.5089849,-0.287962963,-0.014814815,1,0,0,image_left,left,0.9,circle,1,-1,1,122.2498113,122.2498113,122.2498113,,,,,,,,,,,,,,,,,,,,,,,,,,,Ayush ,1,2023-04-18_18h02.35.346,EE_trial,05-02-2022,59.95789756482209,
Ayush _EE_trial_2023-04-18_18h02.35.346.csv,circle,cross,0.9,0.1,circle.png,cross.png,,,,,,,,7,0,28,3,,,,,,,,,,,,,,,,,,,,,,,,,,,123.2597562,123.7394037,123.7394037,0.514327,-0.293518519,-0.030555556,1,0,0,image_left,left,0.9,circle,1,-1,1,124.5257445,124.5257445,124.5257445,,,,,,,,,,,,,,,,,,,,,,,,,,,Ayush ,1,2023-04-18_18h02.35.346,EE_trial,05-02-2022,59.95789756482209,
Ayush _EE_trial_2023-04-18_18h02.35.346.csv,triangle,square,0.4,0.6,triangle.png,square.png,,,,,,,,7,1,29,0,,,,,,,,,,,,,,,,,,,,,,,,,,,125.5419349,126.0217289,126.0217289,0.5154592,0.276851852,0.02962963,1,0,0,image_right,right,0.6,square,-1,-1,-1,127.0655898,127.0655898,127.0655898,,,,,,,,,,,,,,,,,,,,,,,,,,,Ayush ,1,2023-04-18_18h02.35.346,EE_trial,05-02-2022,59.95789756482209,
Ayush _EE_trial_2023-04-18_18h02.35.346.csv,cross,circle,0.1,0.9,cross.png,circle.png,,,,,,,,7,2,30,2,,,,,,,,,,,,,,,,,,,,,,,,,,,128.0758628,128.5519549,128.5519549,0.5104672,0.276851852,0.028703704,1,0,0,image_right,right,0.9,circle,-1,1,1,134.0216905,134.0216905,134.0216905,,,,,,,,,,,,,,,,,,,,,,,,,,,Ayush ,1,2023-04-18_18h02.35.346,EE_trial,05-02-2022,59.95789756482209,
Ayush _EE_trial_2023-04-18_18h02.35.346.csv,circle,cross,0.9,0.1,circle.png,cross.png,,,,,,,,7,3,31,3,,,,,,,,,,,,,,,,,,,,,,,,,,,135.0280839,135.5031134,135.5031134,0.51252,-0.368518519,-0.061111111,1,0,0,image_left,left,0.9,circle,1,-1,1,136.2298772,136.2298772,136.2298772,,,,,,,,,,,,,,,,,,,,,,,,,,,Ayush ,1,2023-04-18_18h02.35.346,EE_trial,05-02-2022,59.95789756482209,
Ayush _EE_trial_2023-04-18_18h02.35.346.csv,circle,cross,0.9,0.1,circle.png,cross.png,,,,,,,,8,0,32,3,,,,,,,,,,,,,,,,,,,,,,,,,,,137.2430201,137.7189395,137.7189395,0.5134033,-0.335185185,-0.051851852,1,0,0,image_left,left,0.9,circle,-1,-1,-1,138.633354,138.633354,138.633354,,,,,,,,,,,,,,,,,,,,,,,,,,,Ayush ,1,2023-04-18_18h02.35.346,EE_trial,05-02-2022,59.95789756482209,
Ayush _EE_trial_2023-04-18_18h02.35.346.csv,square,triangle,0.6,0.4,square.png,triangle.png,,,,,,,,8,1,33,1,,,,,,,,,,,,,,,,,,,,,,,,,,,139.6387941,140.1166032,140.1166032,0.508814,-0.32037037,-0.033333333,1,0,0,image_left,left,0.6,square,-1,-1,-1,140.880911,140.880911,140.880911,,,,,,,,,,,,,,,,,,,,,,,,,,,Ayush ,1,2023-04-18_18h02.35.346,EE_trial,05-02-2022,59.95789756482209,
Ayush _EE_trial_2023-04-18_18h02.35.346.csv,triangle,square,0.4,0.6,triangle.png,square.png,,,,,,,,8,2,34,0,,,,,,,,,,,,,,,,,,,,,,,,,,,141.8869157,142.3665244,142.3665244,0.5108232,0.241666667,0.038888889,1,0,0,image_right,right,0.6,square,1,1,1,143.3107839,143.3107839,143.3107839,,,,,,,,,,,,,,,,,,,,,,,,,,,Ayush ,1,2023-04-18_18h02.35.346,EE_trial,05-02-2022,59.95789756482209,
Ayush _EE_trial_2023-04-18_18h02.35.346.csv,circle,cross,0.9,0.1,circle.png,cross.png,,,,,,,,8,3,35,3,,,,,,,,,,,,,,,,,,,,,,,,,,,144.3309753,144.802586,144.802586,0.513964,-0.383333333,-0.038888889,1,0,0,image_left,left,0.9,circle,1,1,1,145.5465785,145.5465785,145.5465785,,,,,,,,,,,,,,,,,,,,,,,,,,,Ayush ,1,2023-04-18_18h02.35.346,EE_trial,05-02-2022,59.95789756482209,
Ayush _EE_trial_2023-04-18_18h02.35.346.csv,cross,circle,0.1,0.9,cross.png,circle.png,,,,,,,,9,0,36,2,,,,,,,,,,,,,,,,,,,,,,,,,,,146.553914,147.0331172,147.0331172,0.5114307,0.333333333,-0.011111111,1,0,0,image_right,right,0.9,circle,-1,1,1,148.1936774,148.1936774,148.1936774,,,,,,,,,,,,,,,,,,,,,,,,,,,Ayush ,1,2023-04-18_18h02.35.346,EE_trial,05-02-2022,59.95789756482209,
Ayush _EE_trial_2023-04-18_18h02.35.346.csv,triangle,square,0.4,0.6,triangle.png,square.png,,,,,,,,9,1,37,0,,,,,,,,,,,,,,,,,,,,,,,,,,,149.2040642,149.6818882,149.6818882,0.5126534,0.346296296,0.02037037,1,0,0,image_right,right,0.6,square,1,1,1,150.7249229,150.7249229,150.7249229,,,,,,,,,,,,,,,,,,,,,,,,,,,Ayush ,1,2023-04-18_18h02.35.346,EE_trial,05-02-2022,59.95789756482209,
Ayush _EE_trial_2023-04-18_18h02.35.346.csv,square,triangle,0.6,0.4,square.png,triangle.png,,,,,,,,9,2,38,1,,,,,,,,,,,,,,,,,,,,,,,,,,,151.7356702,152.2180797,152.2180797,0.5152039,-0.346296296,-0.003703704,1,0,0,image_left,left,0.6,square,-1,-1,-1,153.0538306,153.0538306,153.0538306,,,,,,,,,,,,,,,,,,,,,,,,,,,Ayush ,1,2023-04-18_18h02.35.346,EE_trial,05-02-2022,59.95789756482209,
Ayush _EE_trial_2023-04-18_18h02.35.346.csv,triangle,square,0.4,0.6,triangle.png,square.png,,,,,,,,9,3,39,0,,,,,,,,,,,,,,,,,,,,,,,,,,,154.0675918,154.5488552,154.5488552,0.5144728,0.331481481,0.049074074,1,0,0,image_right,right,0.6,square,-1,-1,-1,155.4547799,155.4547799,155.4547799,,,,,,,,,,,,,,,,,,,,,,,,,,,Ayush ,1,2023-04-18_18h02.35.346,EE_trial,05-02-2022,59.95789756482209,
Ayush _EE_trial_2023-04-18_18h02.35.346.csv,,,,,,,,,,,,,,,,,,,,,,,,,,,,,,,,,,,,,,,,,,,,,,,,,,,,,,,,,,,,,,,156.4879314,156.4879314,156.4879314,156.4879314,space,1.2584122,,,,,,,,,,,,,,,,,,,,,Ayush ,1,2023-04-18_18h02.35.346,EE_trial,05-02-2022,59.95789756482209,
Ayush _EE_trial_2023-04-18_18h02.35.346.csv,,,,,,,1,circle,-0.2,0.9,0,circle.png,-0.2.png,,,,,0,0,0,0,0,0,0,21,,,,,,,,,,,,,,,,,,,,,,,,,,,,,,,,,,,,,,,,,,,,157.8448477,158.2558188,158.2558188,0.5048443,-0.347222222,0.012962963,1,0,0,image_left_es,left,0.9,circle,1,-1,1,159.1168808,159.1168808,,,Ayush ,1,2023-04-18_18h02.35.346,EE_trial,05-02-2022,59.95789756482209,
Ayush _EE_trial_2023-04-18_18h02.35.346.csv,,,,,,,1,triangle,0.8,0.4,0.9,triangle.png,0.8.png,,,,,0,0,0,0,0,1,1,5,,,,,,,,,,,,,,,,,,,,,,,,,,,,,,,,,,,,,,,,,,,,159.6170674,160.0817526,160.0817526,0.5129951,0.12962963,-0.233333333,1,0,0,image_right_es,right,0.9,0.8,-1,-1,-1,161.8991513,161.8991513,162.4047076,162.4047076,Ayush ,1,2023-04-18_18h02.35.346,EE_trial,05-02-2022,59.95789756482209,
Ayush _EE_trial_2023-04-18_18h02.35.346.csv,,,,,,,1,circle,0.8,0.9,0.9,circle.png,0.8.png,,,,,0,0,0,0,0,2,2,26,,,,,,,,,,,,,,,,,,,,,,,,,,,,,,,,,,,,,,,,,,,,162.4047076,162.899726,162.899726,0.5144125,-0.289814815,0.00462963,1,0,0,image_left_es,left,0.9,circle,1,1,1,163.4643115,163.4643115,163.9791137,163.9791137,Ayush ,1,2023-04-18_18h02.35.346,EE_trial,05-02-2022,59.95789756482209,
Ayush _EE_trial_2023-04-18_18h02.35.346.csv,,,,,,,1,square,0.8,0.6,0.9,square.png,0.8.png,,,,,0,0,0,0,0,3,3,12,,,,,,,,,,,,,,,,,,,,,,,,,,,,,,,,,,,,,,,,,,,,163.9791137,164.4656131,164.4656131,0.499241,-0.309259259,0.028703704,1,0,0,image_left_es,left,0.6,square,-1,1,-1,165.6031369,165.6031369,,,Ayush ,1,2023-04-18_18h02.35.346,EE_trial,05-02-2022,59.95789756482209,
Ayush _EE_trial_2023-04-18_18h02.35.346.csv,,,,,,,1,cross,0.8,0.1,0.9,cross.png,0.8.png,,,,,0,0,0,0,0,4,4,19,,,,,,,,,,,,,,,,,,,,,,,,,,,,,,,,,,,,,,,,,,,,166.1278407,166.5982014,166.5982014,0.5092819,0.162962963,0.011111111,1,0,0,image_right_es,right,0.9,0.8,-1,1,1,168.6154457,168.6154457,169.1677637,169.1677637,Ayush ,1,2023-04-18_18h02.35.346,EE_trial,05-02-2022,59.95789756482209,
Ayush _EE_trial_2023-04-18_18h02.35.346.csv,,,,,,,1,cross,0.2,0.1,0.2,cross.png,0.2.png,,,,,0,0,0,0,0,5,5,20,,,,,,,,,,,,,,,,,,,,,,,,,,,,,,,,,,,,,,,,,,,,169.1677637,169.616121,169.616121,0.5140235,0.189814815,0.007407407,1,0,0,image_right_es,right,0.2,0.2,-1,-1,-1,171.3992027,171.3992027,171.9398983,171.9398983,Ayush ,1,2023-04-18_18h02.35.346,EE_trial,05-02-2022,59.95789756482209,
Ayush _EE_trial_2023-04-18_18h02.35.346.csv,,,,,,,1,square,-0.2,0.6,0,square.png,-0.2.png,,,,,0,0,0,0,0,6,6,7,,,,,,,,,,,,,,,,,,,,,,,,,,,,,,,,,,,,,,,,,,,,171.9398983,172.3979968,172.3979968,0.5128006,-0.351851852,-0.041666667,1,0,0,image_left_es,left,0.6,square,-1,-1,-1,174.3304454,174.3304454,174.8981478,174.8981478,Ayush ,1,2023-04-18_18h02.35.346,EE_trial,05-02-2022,59.95789756482209,
Ayush _EE_trial_2023-04-18_18h02.35.346.csv,,,,,,,1,circle,0.2,0.9,0.2,circle.png,0.2.png,,,,,0,0,0,0,0,7,7,27,,,,,,,,,,,,,,,,,,,,,,,,,,,,,,,,,,,,,,,,,,,,174.8981478,175.3306615,175.3306615,0.5121383,-0.308333333,-0.04537037,1,0,0,image_left_es,left,0.9,circle,1,1,1,176.0141603,176.0141603,,,Ayush ,1,2023-04-18_18h02.35.346,EE_trial,05-02-2022,59.95789756482209,
Ayush _EE_trial_2023-04-18_18h02.35.346.csv,,,,,,,1,cross,0,0.1,0.5,cross.png,0.png,,,,,0,0,0,0,0,8,8,17,,,,,,,,,,,,,,,,,,,,,,,,,,,,,,,,,,,,,,,,,,,,176.5884723,177.0136799,177.0136799,0.5101562,0.388888889,0.263888889,1,0,0,image_right_es,right,0.5,0,-1,-1,-1,179.2485927,179.2485927,,,Ayush ,1,2023-04-18_18h02.35.346,EE_trial,05-02-2022,59.95789756482209,
Ayush _EE_trial_2023-04-18_18h02.35.346.csv,,,,,,,1,triangle,-0.8,0.4,0.1,triangle.png,-0.8.png,,,,,0,0,0,0,0,9,9,1,,,,,,,,,,,,,,,,,,,,,,,,,,,,,,,,,,,,,,,,,,,,179.7897916,180.2451635,180.2451635,0.5092744,-0.262037037,0.025,1,0,0,image_left_es,left,0.4,triangle,-1,-1,-1,182.3134703,182.3134703,,,Ayush ,1,2023-04-18_18h02.35.346,EE_trial,05-02-2022,59.95789756482209,
Ayush _EE_trial_2023-04-18_18h02.35.346.csv,,,,,,,1,triangle,0,0.4,0.5,triangle.png,0.png,,,,,0,0,0,0,0,10,10,3,,,,,,,,,,,,,,,,,,,,,,,,,,,,,,,,,,,,,,,,,,,,182.8501226,183.3127469,183.3127469,0.5145103,0.263888889,-0.05,1,0,0,image_right_es,right,0.5,0,-1,-1,-1,185.6118096,185.6118096,186.1220023,186.1220023,Ayush ,1,2023-04-18_18h02.35.346,EE_trial,05-02-2022,59.95789756482209,
Ayush _EE_trial_2023-04-18_18h02.35.346.csv,,,,,,,1,square,0.4,0.6,0.7,square.png,0.4.png,,,,,0,0,0,0,0,11,11,11,,,,,,,,,,,,,,,,,,,,,,,,,,,,,,,,,,,,,,,,,,,,186.1220023,186.6142535,186.6142535,0.5143411,0.344444444,0.073148148,1,0,0,image_right_es,right,0.7,0.4,1,1,1,190.0620562,190.0620562,,,Ayush ,1,2023-04-18_18h02.35.346,EE_trial,05-02-2022,59.95789756482209,
Ayush _EE_trial_2023-04-18_18h02.35.346.csv,,,,,,,1,circle,0.4,0.9,0.7,circle.png,0.4.png,,,,,0,0,0,0,0,12,12,25,,,,,,,,,,,,,,,,,,,,,,,,,,,,,,,,,,,,,,,,,,,,190.5853347,191.0607993,191.0607993,0.5144543,-0.257407407,-0.043518519,1,0,0,image_left_es,left,0.9,circle,1,1,1,191.9449225,191.9449225,192.4522105,192.4522105,Ayush ,1,2023-04-18_18h02.35.346,EE_trial,05-02-2022,59.95789756482209,
Ayush _EE_trial_2023-04-18_18h02.35.346.csv,,,,,,,1,square,0.2,0.6,0.2,square.png,0.2.png,,,,,0,0,0,0,0,13,13,13,,,,,,,,,,,,,,,,,,,,,,,,,,,,,,,,,,,,,,,,,,,,192.4522105,192.9459811,192.9459811,0.5148643,-0.257407407,-0.043518519,1,0,0,image_left_es,left,0.6,square,-1,-1,-1,193.5444765,193.5444765,194.0489339,194.0489339,Ayush ,1,2023-04-18_18h02.35.346,EE_trial,05-02-2022,59.95789756482209,
Ayush _EE_trial_2023-04-18_18h02.35.346.csv,,,,,,,1,triangle,0.4,0.4,0.7,triangle.png,0.4.png,,,,,0,0,0,0,0,14,14,4,,,,,,,,,,,,,,,,,,,,,,,,,,,,,,,,,,,,,,,,,,,,194.0489339,194.5302181,194.5302181,0.5014742,0.113888889,0.260185185,1,0,0,image_right_es,right,0.7,0.4,-1,-1,-1,196.7632404,196.7632404,,,Ayush ,1,2023-04-18_18h02.35.346,EE_trial,05-02-2022,59.95789756482209,
Ayush _EE_trial_2023-04-18_18h02.35.346.csv,,,,,,,1,triangle,0.2,0.4,0.2,triangle.png,0.2.png,,,,,0,0,0,0,0,15,15,6,,,,,,,,,,,,,,,,,,,,,,,,,,,,,,,,,,,,,,,,,,,,197.2837052,197.7602849,197.7602849,0.5123497,0.268518519,0.19537037,1,0,0,image_right_es,right,0.2,0.2,1,-1,-1,199.3110542,199.3110542,,,Ayush ,1,2023-04-18_18h02.35.346,EE_trial,05-02-2022,59.95789756482209,
Ayush _EE_trial_2023-04-18_18h02.35.346.csv,,,,,,,1,triangle,-0.4,0.4,0.3,triangle.png,-0.4.png,,,,,0,0,0,0,0,16,16,2,,,,,,,,,,,,,,,,,,,,,,,,,,,,,,,,,,,,,,,,,,,,199.8398749,200.2956922,200.2956922,0.5136509,0.207407407,-0.171296296,1,0,0,image_right_es,right,0.3,-0.4,-1,-1,-1,205.1265852,205.1265852,205.6346171,205.6346171,Ayush ,1,2023-04-18_18h02.35.346,EE_trial,05-02-2022,59.95789756482209,
Ayush _EE_trial_2023-04-18_18h02.35.346.csv,,,,,,,1,triangle,-0.2,0.4,0,triangle.png,-0.2.png,,,,,0,0,0,0,0,17,17,0,,,,,,,,,,,,,,,,,,,,,,,,,,,,,,,,,,,,,,,,,,,,205.6346171,206.1281186,206.1281186,0.4993055,0.068518519,-0.235185185,1,0,0,image_right_es,right,0,-0.2,1,-1,-1,208.025152,208.025152,208.539467,208.539467,Ayush ,1,2023-04-18_18h02.35.346,EE_trial,05-02-2022,59.95789756482209,
Ayush _EE_trial_2023-04-18_18h02.35.346.csv,,,,,,,1,cross,-0.4,0.1,0.3,cross.png,-0.4.png,,,,,0,0,0,0,0,18,18,16,,,,,,,,,,,,,,,,,,,,,,,,,,,,,,,,,,,,,,,,,,,,208.539467,209.024974,209.024974,0.5147867,0.423148148,-0.200925926,1,0,0,image_right_es,right,0.3,-0.4,-1,-1,-1,210.7944302,210.7944302,,,Ayush ,1,2023-04-18_18h02.35.346,EE_trial,05-02-2022,59.95789756482209,
Ayush _EE_trial_2023-04-18_18h02.35.346.csv,,,,,,,1,square,-0.4,0.6,0.3,square.png,-0.4.png,,,,,0,0,0,0,0,19,19,9,,,,,,,,,,,,,,,,,,,,,,,,,,,,,,,,,,,,,,,,,,,,211.3124384,211.7939093,211.7939093,0.5132738,-0.323148148,0.016666667,1,0,0,image_left_es,left,0.6,square,-1,-1,-1,213.3743798,213.3743798,213.8833996,213.8833996,Ayush ,1,2023-04-18_18h02.35.346,EE_trial,05-02-2022,59.95789756482209,
Ayush _EE_trial_2023-04-18_18h02.35.346.csv,,,,,,,1,square,0,0.6,0.5,square.png,0.png,,,,,0,0,0,0,0,20,20,10,,,,,,,,,,,,,,,,,,,,,,,,,,,,,,,,,,,,,,,,,,,,213.8833996,214.3746681,214.3746681,0.5148553,-0.323148148,0.016666667,1,0,0,image_left_es,left,0.6,square,1,1,1,214.9279839,214.9279839,215.4412217,215.4412217,Ayush ,1,2023-04-18_18h02.35.346,EE_trial,05-02-2022,59.95789756482209,
Ayush _EE_trial_2023-04-18_18h02.35.346.csv,,,,,,,1,cross,0.4,0.1,0.7,cross.png,0.4.png,,,,,0,0,0,0,0,21,21,18,,,,,,,,,,,,,,,,,,,,,,,,,,,,,,,,,,,,,,,,,,,,215.4412217,215.9264839,215.9264839,0.5133366,0.258333333,-0.093518519,1,0,0,image_right_es,right,0.7,0.4,-1,1,1,217.8745194,217.8745194,218.3890956,218.3890956,Ayush ,1,2023-04-18_18h02.35.346,EE_trial,05-02-2022,59.95789756482209,
Ayush _EE_trial_2023-04-18_18h02.35.346.csv,,,,,,,1,cross,-0.8,0.1,0.1,cross.png,-0.8.png,,,,,0,0,0,0,0,22,22,15,,,,,,,,,,,,,,,,,,,,,,,,,,,,,,,,,,,,,,,,,,,,218.3890956,218.875987,218.875987,0.5149295,-0.275,-0.02962963,1,0,0,image_left_es,left,0.1,cross,-1,-1,-1,221.0565379,221.0565379,,,Ayush ,1,2023-04-18_18h02.35.346,EE_trial,05-02-2022,59.95789756482209,
Ayush _EE_trial_2023-04-18_18h02.35.346.csv,,,,,,,1,circle,-0.8,0.9,0.1,circle.png,-0.8.png,,,,,0,0,0,0,0,23,23,22,,,,,,,,,,,,,,,,,,,,,,,,,,,,,,,,,,,,,,,,,,,,221.5803965,222.0598985,222.0598985,0.5167814,-0.275,-0.02962963,1,0,0,image_left_es,left,0.9,circle,1,-1,1,223.0558626,223.0558626,223.564027,223.564027,Ayush ,1,2023-04-18_18h02.35.346,EE_trial,05-02-2022,59.95789756482209,
Ayush _EE_trial_2023-04-18_18h02.35.346.csv,,,,,,,1,square,-0.8,0.6,0.1,square.png,-0.8.png,,,,,0,0,0,0,0,24,24,8,,,,,,,,,,,,,,,,,,,,,,,,,,,,,,,,,,,,,,,,,,,,223.564027,224.0408637,224.0408637,0.4993349,-0.275,-0.02962963,1,0,0,image_left_es,left,0.6,square,-1,-1,-1,224.673924,224.673924,,,Ayush ,1,2023-04-18_18h02.35.346,EE_trial,05-02-2022,59.95789756482209,
Ayush _EE_trial_2023-04-18_18h02.35.346.csv,,,,,,,1,circle,-0.4,0.9,0.3,circle.png,-0.4.png,,,,,0,0,0,0,0,25,25,23,,,,,,,,,,,,,,,,,,,,,,,,,,,,,,,,,,,,,,,,,,,,225.1961454,225.6767524,225.6767524,0.5162681,-0.275,-0.02962963,1,0,0,image_left_es,left,0.9,circle,1,1,1,226.5571842,226.5571842,227.065579,227.065579,Ayush ,1,2023-04-18_18h02.35.346,EE_trial,05-02-2022,59.95789756482209,
Ayush _EE_trial_2023-04-18_18h02.35.346.csv,,,,,,,1,cross,-0.2,0.1,0,cross.png,-0.2.png,,,,,0,0,0,0,0,26,26,14,,,,,,,,,,,,,,,,,,,,,,,,,,,,,,,,,,,,,,,,,,,,227.065579,227.5582749,227.5582749,0.5163228,0.14537037,0.159259259,1,0,0,image_right_es,right,0,-0.2,-1,-1,-1,229.6907483,229.6907483,230.2005418,230.2005418,Ayush ,1,2023-04-18_18h02.35.346,EE_trial,05-02-2022,59.95789756482209,
Ayush _EE_trial_2023-04-18_18h02.35.346.csv,,,,,,,1,circle,0,0.9,0.5,circle.png,0.png,,,,,0,0,0,0,0,27,27,24,,,,,,,,,,,,,,,,,,,,,,,,,,,,,,,,,,,,,,,,,,,,230.2005418,230.6914986,230.6914986,0.5151872,-0.284259259,-0.037037037,1,0,0,image_left_es,left,0.9,circle,1,-1,1,231.406761,231.406761,,,Ayush ,1,2023-04-18_18h02.35.346,EE_trial,05-02-2022,59.95789756482209,
Ayush _EE_trial_2023-04-18_18h02.35.346.csv,,,,,,,1,,,,,,,,,,,0,0,0,0,,,,,,,,,,,,,,,,,,,,,,,,,,,,,,,,,,,,,,,,,,,,,,,,,,,,,,,,,,,,,,,,,,,,Ayush ,1,2023-04-18_18h02.35.346,EE_trial,05-02-2022,59.95789756482209,
Ayush _EE_trial_2023-04-18_18h02.35.346.csv,,,,,,,3,triangle,0.2,0.4,0.2,triangle.png,0.2.png,,,,,0,1,1,1,0,0,0,6,,,,,,,,,,,,,,,,,,,,,,,,,,,,,,,,,,,,,,,,,,,,231.9526337,232.405084,232.405084,0.5099202,0.355555556,0.188888889,1,0,0,image_right_es,right,0.2,0.2,1,-1,-1,236.4887697,236.4887697,,,Ayush ,1,2023-04-18_18h02.35.346,EE_trial,05-02-2022,59.95789756482209,
Ayush _EE_trial_2023-04-18_18h02.35.346.csv,,,,,,,3,triangle,-0.4,0.4,0.3,triangle.png,-0.4.png,,,,,0,1,1,1,0,1,1,2,,,,,,,,,,,,,,,,,,,,,,,,,,,,,,,,,,,,,,,,,,,,237.0095961,237.4919693,237.4919693,0.5144412,-0.262037037,-0.028703704,1,0,0,image_left_es,left,0.4,triangle,-1,-1,-1,238.8046602,238.8046602,239.3084859,239.3084859,Ayush ,1,2023-04-18_18h02.35.346,EE_trial,05-02-2022,59.95789756482209,
Ayush _EE_trial_2023-04-18_18h02.35.346.csv,,,,,,,3,triangle,0.4,0.4,0.7,triangle.png,0.4.png,,,,,0,1,1,1,0,2,2,4,,,,,,,,,,,,,,,,,,,,,,,,,,,,,,,,,,,,,,,,,,,,239.3084859,239.8075711,239.8075711,0.4996889,0.464814815,0.108333333,1,0,0,image_right_es,right,0.7,0.4,-1,1,1,243.5213595,243.5213595,,,Ayush ,1,2023-04-18_18h02.35.346,EE_trial,05-02-2022,59.95789756482209,
Ayush _EE_trial_2023-04-18_18h02.35.346.csv,,,,,,,3,cross,0.2,0.1,0.2,cross.png,0.2.png,,,,,0,1,1,1,0,3,3,20,,,,,,,,,,,,,,,,,,,,,,,,,,,,,,,,,,,,,,,,,,,,244.0413822,244.5207353,244.5207353,0.514595,0.27962963,0.065740741,1,0,0,image_right_es,right,0.2,0.2,-1,-1,-1,248.8869171,248.8869171,249.3964356,249.3964356,Ayush ,1,2023-04-18_18h02.35.346,EE_trial,05-02-2022,59.95789756482209,
Ayush _EE_trial_2023-04-18_18h02.35.346.csv,,,,,,,3,square,0.4,0.6,0.7,square.png,0.4.png,,,,,0,1,1,1,0,4,4,11,,,,,,,,,,,,,,,,,,,,,,,,,,,,,,,,,,,,,,,,,,,,249.3964356,249.8859762,249.8859762,0.513527,-0.332407407,-0.025,1,0,0,image_left_es,left,0.6,square,1,1,1,251.0201917,251.0201917,,,Ayush ,1,2023-04-18_18h02.35.346,EE_trial,05-02-2022,59.95789756482209,
Ayush _EE_trial_2023-04-18_18h02.35.346.csv,,,,,,,3,cross,-0.8,0.1,0.1,cross.png,-0.8.png,,,,,0,1,1,1,0,5,5,15,,,,,,,,,,,,,,,,,,,,,,,,,,,,,,,,,,,,,,,,,,,,251.5442989,252.0201456,252.0201456,0.5153022,-0.252777778,-0.02962963,1,0,0,image_left_es,left,0.1,cross,-1,-1,-1,253.337009,253.337009,,,Ayush ,1,2023-04-18_18h02.35.346,EE_trial,05-02-2022,59.95789756482209,
Ayush _EE_trial_2023-04-18_18h02.35.346.csv,,,,,,,3,cross,-0.4,0.1,0.3,cross.png,-0.4.png,,,,,0,1,1,1,0,6,6,16,,,,,,,,,,,,,,,,,,,,,,,,,,,,,,,,,,,,,,,,,,,,253.859426,254.3348871,254.3348871,0.5126725,-0.241666667,0.018518519,1,0,0,image_left_es,left,0.1,cross,1,1,1,256.1191912,256.1191912,256.6233155,256.6233155,Ayush ,1,2023-04-18_18h02.35.346,EE_trial,05-02-2022,59.95789756482209,
Ayush _EE_trial_2023-04-18_18h02.35.346.csv,,,,,,,3,cross,0.8,0.1,0.9,cross.png,0.8.png,,,,,0,1,1,1,0,7,7,19,,,,,,,,,,,,,,,,,,,,,,,,,,,,,,,,,,,,,,,,,,,,256.6233155,257.1211422,257.1211422,0.517056,0.553703704,-0.123148148,1,0,0,image_right_es,right,0.9,0.8,-1,1,1,260.7032151,260.7032151,,,Ayush ,1,2023-04-18_18h02.35.346,EE_trial,05-02-2022,59.95789756482209,
Ayush _EE_trial_2023-04-18_18h02.35.346.csv,,,,,,,3,circle,-0.8,0.9,0.1,circle.png,-0.8.png,,,,,0,1,1,1,0,8,8,22,,,,,,,,,,,,,,,,,,,,,,,,,,,,,,,,,,,,,,,,,,,,261.2222534,261.7044096,261.7044096,0.5135731,-0.233333333,-0.016666667,1,0,0,image_left_es,left,0.9,circle,1,-1,1,262.6189877,262.6189877,263.1250374,263.1250374,Ayush ,1,2023-04-18_18h02.35.346,EE_trial,05-02-2022,59.95789756482209,
Ayush _EE_trial_2023-04-18_18h02.35.346.csv,,,,,,,3,cross,-0.2,0.1,0,cross.png,-0.2.png,,,,,0,1,1,1,0,9,9,14,,,,,,,,,,,,,,,,,,,,,,,,,,,,,,,,,,,,,,,,,,,,263.1250374,263.6202264,263.6202264,0.5157952,-0.230555556,0.030555556,1,0,0,image_left_es,left,0.1,cross,-1,-1,-1,265.3351306,265.3351306,265.8392096,265.8392096,Ayush ,1,2023-04-18_18h02.35.346,EE_trial,05-02-2022,59.95789756482209,
Ayush _EE_trial_2023-04-18_18h02.35.346.csv,,,,,,,3,circle,0.2,0.9,0.2,circle.png,0.2.png,,,,,0,1,1,1,0,10,10,27,,,,,,,,,,,,,,,,,,,,,,,,,,,,,,,,,,,,,,,,,,,,265.8392096,266.3361103,266.3361103,0.5150513,-0.230555556,0.030555556,1,0,0,image_left_es,left,0.9,circle,1,-1,1,298.6630577,298.6630577,299.1720561,299.1720561,Ayush ,1,2023-04-18_18h02.35.346,EE_trial,05-02-2022,59.95789756482209,
Ayush _EE_trial_2023-04-18_18h02.35.346.csv,,,,,,,3,circle,0,0.9,0.5,circle.png,0.png,,,,,0,1,1,1,0,11,11,24,,,,,,,,,,,,,,,,,,,,,,,,,,,,,,,,,,,,,,,,,,,,299.1720561,299.6661821,299.6661821,0.5165779,-0.278703704,-0.02037037,1,0,0,image_left_es,left,0.9,circle,1,1,1,300.4307207,300.4307207,,,Ayush ,1,2023-04-18_18h02.35.346,EE_trial,05-02-2022,59.95789756482209,
Ayush _EE_trial_2023-04-18_18h02.35.346.csv,,,,,,,3,square,0.2,0.6,0.2,square.png,0.2.png,,,,,0,1,1,1,0,12,12,13,,,,,,,,,,,,,,,,,,,,,,,,,,,,,,,,,,,,,,,,,,,,300.9503385,301.4292313,301.4292313,0.5133522,-0.325925926,-0.011111111,1,0,0,image_left_es,left,0.6,square,-1,-1,-1,302.5469208,302.5469208,303.0556624,303.0556624,Ayush ,1,2023-04-18_18h02.35.346,EE_trial,05-02-2022,59.95789756482209,
Ayush _EE_trial_2023-04-18_18h02.35.346.csv,,,,,,,3,triangle,0,0.4,0.5,triangle.png,0.png,,,,,0,1,1,1,0,13,13,3,,,,,,,,,,,,,,,,,,,,,,,,,,,,,,,,,,,,,,,,,,,,303.0556624,303.545396,303.545396,0.510531,0.273148148,-0.097222222,1,0,0,image_right_es,right,0.5,0,-1,-1,-1,307.6635999,307.6635999,,,Ayush ,1,2023-04-18_18h02.35.346,EE_trial,05-02-2022,59.95789756482209,
Ayush _EE_trial_2023-04-18_18h02.35.346.csv,,,,,,,3,square,0.8,0.6,0.9,square.png,0.8.png,,,,,0,1,1,1,0,14,14,12,,,,,,,,,,,,,,,,,,,,,,,,,,,,,,,,,,,,,,,,,,,,308.1842934,308.6616494,308.6616494,0.5134599,0.134259259,-0.122222222,1,0,0,image_right_es,right,0.9,0.8,-1,-1,-1,312.2302709,312.2302709,312.7415124,312.7415124,Ayush ,1,2023-04-18_18h02.35.346,EE_trial,05-02-2022,59.95789756482209,
Ayush _EE_trial_2023-04-18_18h02.35.346.csv,,,,,,,3,square,-0.4,0.6,0.3,square.png,-0.4.png,,,,,0,1,1,1,0,15,15,9,,,,,,,,,,,,,,,,,,,,,,,,,,,,,,,,,,,,,,,,,,,,312.7415124,313.2296735,313.2296735,0.5122263,-0.288888889,-0.011111111,1,0,0,image_left_es,left,0.6,square,-1,-1,-1,314.397033,314.397033,,,Ayush ,1,2023-04-18_18h02.35.346,EE_trial,05-02-2022,59.95789756482209,
Ayush _EE_trial_2023-04-18_18h02.35.346.csv,,,,,,,3,triangle,-0.2,0.4,0,triangle.png,-0.2.png,,,,,0,1,1,1,0,16,16,0,,,,,,,,,,,,,,,,,,,,,,,,,,,,,,,,,,,,,,,,,,,,314.9170232,315.3973689,315.3973689,0.514064,-0.347222222,0,1,0,0,image_left_es,left,0.4,triangle,1,-1,1,316.7936871,316.7936871,317.312482,317.312482,Ayush ,1,2023-04-18_18h02.35.346,EE_trial,05-02-2022,59.95789756482209,
Ayush _EE_trial_2023-04-18_18h02.35.346.csv,,,,,,,3,triangle,0.8,0.4,0.9,triangle.png,0.8.png,,,,,0,1,1,1,0,17,17,5,,,,,,,,,,,,,,,,,,,,,,,,,,,,,,,,,,,,,,,,,,,,317.312482,317.794432,317.794432,0.5141189,0.028703704,-0.006481481,1,0,0,image_right_es,right,0.9,0.8,1,1,1,321.0769265,321.0769265,321.5811519,321.5811519,Ayush ,1,2023-04-18_18h02.35.346,EE_trial,05-02-2022,59.95789756482209,
Ayush _EE_trial_2023-04-18_18h02.35.346.csv,,,,,,,3,circle,0.8,0.9,0.9,circle.png,0.8.png,,,,,0,1,1,1,0,18,18,26,,,,,,,,,,,,,,,,,,,,,,,,,,,,,,,,,,,,,,,,,,,,321.5811519,322.0627188,322.0627188,0.5008778,0.373148148,0.006481481,1,0,0,image_right_es,right,0.9,0.8,1,1,1,326.3614742,326.3614742,326.869457,326.869457,Ayush ,1,2023-04-18_18h02.35.346,EE_trial,05-02-2022,59.95789756482209,
Ayush _EE_trial_2023-04-18_18h02.35.346.csv,,,,,,,3,cross,0.4,0.1,0.7,cross.png,0.4.png,,,,,0,1,1,1,0,19,19,18,,,,,,,,,,,,,,,,,,,,,,,,,,,,,,,,,,,,,,,,,,,,326.869457,327.3609435,327.3609435,0.5155558,0.14537037,-0.069444444,1,0,0,image_right_es,right,0.7,0.4,1,1,1,330.5850867,330.5850867,,,Ayush ,1,2023-04-18_18h02.35.346,EE_trial,05-02-2022,59.95789756482209,
Ayush _EE_trial_2023-04-18_18h02.35.346.csv,,,,,,,3,square,-0.2,0.6,0,square.png,-0.2.png,,,,,0,1,1,1,0,20,20,7,,,,,,,,,,,,,,,,,,,,,,,,,,,,,,,,,,,,,,,,,,,,331.114415,331.5783545,331.5783545,0.5106223,-0.276851852,-0.037037037,1,0,0,image_left_es,left,0.6,square,-1,-1,-1,332.3536618,332.3536618,,,Ayush ,1,2023-04-18_18h02.35.346,EE_trial,05-02-2022,59.95789756482209,
Ayush _EE_trial_2023-04-18_18h02.35.346.csv,,,,,,,3,circle,-0.4,0.9,0.3,circle.png,-0.4.png,,,,,0,1,1,1,0,21,21,23,,,,,,,,,,,,,,,,,,,,,,,,,,,,,,,,,,,,,,,,,,,,332.8919608,333.3456638,333.3456638,0.5069203,-0.276851852,-0.037037037,1,0,0,image_left_es,left,0.9,circle,1,-1,1,333.9621368,333.9621368,,,Ayush ,1,2023-04-18_18h02.35.346,EE_trial,05-02-2022,59.95789756482209,
Ayush _EE_trial_2023-04-18_18h02.35.346.csv,,,,,,,3,cross,0,0.1,0.5,cross.png,0.png,,,,,0,1,1,1,0,22,22,17,,,,,,,,,,,,,,,,,,,,,,,,,,,,,,,,,,,,,,,,,,,,334.500761,334.9618618,334.9618618,0.5129931,-0.276851852,-0.037037037,1,0,0,image_left_es,left,0.1,cross,-1,1,-1,335.6638516,335.6638516,,,Ayush ,1,2023-04-18_18h02.35.346,EE_trial,05-02-2022,59.95789756482209,
Ayush _EE_trial_2023-04-18_18h02.35.346.csv,,,,,,,3,square,0,0.6,0.5,square.png,0.png,,,,,0,1,1,1,0,23,23,10,,,,,,,,,,,,,,,,,,,,,,,,,,,,,,,,,,,,,,,,,,,,336.1986386,336.662032,336.662032,0.5134724,-0.276851852,-0.037037037,1,0,0,image_left_es,left,0.6,square,1,1,1,337.8928304,337.8928304,338.4143685,338.4143685,Ayush ,1,2023-04-18_18h02.35.346,EE_trial,05-02-2022,59.95789756482209,
Ayush _EE_trial_2023-04-18_18h02.35.346.csv,,,,,,,3,circle,0.4,0.9,0.7,circle.png,0.4.png,,,,,0,1,1,1,0,24,24,25,,,,,,,,,,,,,,,,,,,,,,,,,,,,,,,,,,,,,,,,,,,,338.4143685,338.8914548,338.8914548,0.5120071,-0.276851852,-0.037037037,1,0,0,image_left_es,left,0.9,circle,-1,-1,-1,339.6259842,339.6259842,340.1356593,340.1356593,Ayush ,1,2023-04-18_18h02.35.346,EE_trial,05-02-2022,59.95789756482209,
Ayush _EE_trial_2023-04-18_18h02.35.346.csv,,,,,,,3,triangle,-0.8,0.4,0.1,triangle.png,-0.8.png,,,,,0,1,1,1,0,25,25,1,,,,,,,,,,,,,,,,,,,,,,,,,,,,,,,,,,,,,,,,,,,,340.1356593,340.6272238,340.6272238,0.5154414,-0.276851852,-0.037037037,1,0,0,image_left_es,left,0.4,triangle,1,1,1,342.1925578,342.1925578,342.7176087,342.7176087,Ayush ,1,2023-04-18_18h02.35.346,EE_trial,05-02-2022,59.95789756482209,
Ayush _EE_trial_2023-04-18_18h02.35.346.csv,,,,,,,3,square,-0.8,0.6,0.1,square.png,-0.8.png,,,,,0,1,1,1,0,26,26,8,,,,,,,,,,,,,,,,,,,,,,,,,,,,,,,,,,,,,,,,,,,,342.7176087,343.1772743,343.1772743,0.4990717,-0.276851852,-0.037037037,1,0,0,image_left_es,left,0.6,square,1,-1,1,343.8408669,343.8408669,344.3712356,344.3712356,Ayush ,1,2023-04-18_18h02.35.346,EE_trial,05-02-2022,59.95789756482209,
Ayush _EE_trial_2023-04-18_18h02.35.346.csv,,,,,,,3,circle,-0.2,0.9,0,circle.png,-0.2.png,,,,,0,1,1,1,0,27,27,21,,,,,,,,,,,,,,,,,,,,,,,,,,,,,,,,,,,,,,,,,,,,344.3712356,344.8436049,344.8436049,0.5147414,-0.278703704,-0.037037037,1,0,0,image_left_es,left,0.9,circle,1,-1,1,346.1799448,346.1799448,,,Ayush ,1,2023-04-18_18h02.35.346,EE_trial,05-02-2022,59.95789756482209,
Ayush _EE_trial_2023-04-18_18h02.35.346.csv,,,,,,,3,,,,,,,,,,,0,1,1,1,,,,,,,,,,,,,,,,,,,,,,,,,,,,,,,,,,,,,,,,,,,,,,,,,,,,,,,,,,,,,,,,,,,,Ayush ,1,2023-04-18_18h02.35.346,EE_trial,05-02-2022,59.95789756482209,
Ayush _EE_trial_2023-04-18_18h02.35.346.csv,,,,,,,5,square,-0.8,0.6,0.1,square.png,-0.8.png,,,,,0,2,2,2,0,0,0,8,,,,,,,,,,,,,,,,,,,,,,,,,,,,,,,,,,,,,,,,,,,,346.752834,347.1748275,347.1748275,0.5087736,-0.278703704,-0.037037037,1,0,0,image_left_es,left,0.6,square,1,1,1,348.076078,348.076078,348.5957434,348.5957434,Ayush ,1,2023-04-18_18h02.35.346,EE_trial,05-02-2022,59.95789756482209,
Ayush _EE_trial_2023-04-18_18h02.35.346.csv,,,,,,,5,circle,-0.8,0.9,0.1,circle.png,-0.8.png,,,,,0,2,2,2,0,1,1,22,,,,,,,,,,,,,,,,,,,,,,,,,,,,,,,,,,,,,,,,,,,,348.5957434,349.0737087,349.0737087,0.5114327,-0.278703704,-0.037037037,1,0,0,image_left_es,left,0.9,circle,1,-1,1,349.6262634,349.6262634,,,Ayush ,1,2023-04-18_18h02.35.346,EE_trial,05-02-2022,59.95789756482209,
Ayush _EE_trial_2023-04-18_18h02.35.346.csv,,,,,,,5,triangle,-0.2,0.4,0,triangle.png,-0.2.png,,,,,0,2,2,2,0,2,2,0,,,,,,,,,,,,,,,,,,,,,,,,,,,,,,,,,,,,,,,,,,,,350.1566385,350.6251881,350.6251881,0.5133599,-0.278703704,-0.037037037,1,0,0,image_left_es,left,0.4,triangle,-1,-1,-1,351.274847,351.274847,,,Ayush ,1,2023-04-18_18h02.35.346,EE_trial,05-02-2022,59.95789756482209,
Ayush _EE_trial_2023-04-18_18h02.35.346.csv,,,,,,,5,cross,-0.4,0.1,0.3,cross.png,-0.4.png,,,,,0,2,2,2,0,3,3,16,,,,,,,,,,,,,,,,,,,,,,,,,,,,,,,,,,,,,,,,,,,,351.8167519,352.2748276,352.2748276,0.5141758,-0.278703704,-0.037037037,1,0,0,image_left_es,left,0.1,cross,-1,-1,-1,353.1917021,353.1917021,,,Ayush ,1,2023-04-18_18h02.35.346,EE_trial,05-02-2022,59.95789756482209,
Ayush _EE_trial_2023-04-18_18h02.35.346.csv,,,,,,,5,cross,0.4,0.1,0.7,cross.png,0.4.png,,,,,0,2,2,2,0,4,4,18,,,,,,,,,,,,,,,,,,,,,,,,,,,,,,,,,,,,,,,,,,,,353.7249731,354.1888894,354.1888894,0.5096682,0.337037037,0.037962963,1,0,0,image_right_es,right,0.7,0.4,-1,1,1,358.8247881,358.8247881,,,Ayush ,1,2023-04-18_18h02.35.346,EE_trial,05-02-2022,59.95789756482209,
Ayush _EE_trial_2023-04-18_18h02.35.346.csv,,,,,,,5,triangle,0.2,0.4,0.2,triangle.png,0.2.png,,,,,0,2,2,2,0,5,5,6,,,,,,,,,,,,,,,,,,,,,,,,,,,,,,,,,,,,,,,,,,,,359.374676,359.8237759,359.8237759,0.5145028,0.173148148,-0.152777778,1,0,0,image_right_es,right,0.2,0.2,1,1,1,366.2222972,366.2222972,366.7380924,366.7380924,Ayush ,1,2023-04-18_18h02.35.346,EE_trial,05-02-2022,59.95789756482209,
Ayush _EE_trial_2023-04-18_18h02.35.346.csv,,,,,,,5,cross,0.2,0.1,0.2,cross.png,0.2.png,,,,,0,2,2,2,0,6,6,20,,,,,,,,,,,,,,,,,,,,,,,,,,,,,,,,,,,,,,,,,,,,366.7380924,367.220137,367.220137,0.5115078,0.374074074,-0.140740741,1,0,0,image_right_es,right,0.2,0.2,-1,-1,-1,372.1541696,372.1541696,,,Ayush ,1,2023-04-18_18h02.35.346,EE_trial,05-02-2022,59.95789756482209,
Ayush _EE_trial_2023-04-18_18h02.35.346.csv,,,,,,,5,square,-0.2,0.6,0,square.png,-0.2.png,,,,,0,2,2,2,0,7,7,7,,,,,,,,,,,,,,,,,,,,,,,,,,,,,,,,,,,,,,,,,,,,372.6749253,373.1539596,373.1539596,0.5006117,-0.294444444,0.04537037,1,0,0,image_left_es,left,0.6,square,-1,-1,-1,374.2542662,374.2542662,374.760763,374.760763,Ayush ,1,2023-04-18_18h02.35.346,EE_trial,05-02-2022,59.95789756482209,
Ayush _EE_trial_2023-04-18_18h02.35.346.csv,,,,,,,5,square,0.8,0.6,0.9,square.png,0.8.png,,,,,0,2,2,2,0,8,8,12,,,,,,,,,,,,,,,,,,,,,,,,,,,,,,,,,,,,,,,,,,,,374.760763,375.2564733,375.2564733,0.5136448,0.225,0.055555556,1,0,0,image_right_es,right,0.9,0.8,1,1,1,380.1027168,380.1027168,380.6076454,380.6076454,Ayush ,1,2023-04-18_18h02.35.346,EE_trial,05-02-2022,59.95789756482209,
Ayush _EE_trial_2023-04-18_18h02.35.346.csv,,,,,,,5,square,0,0.6,0.5,square.png,0.png,,,,,0,2,2,2,0,9,9,10,,,,,,,,,,,,,,,,,,,,,,,,,,,,,,,,,,,,,,,,,,,,380.6076454,381.101931,381.101931,0.5125852,-0.255555556,0.022222222,1,0,0,image_left_es,left,0.6,square,1,1,1,382.2878995,382.2878995,,,Ayush ,1,2023-04-18_18h02.35.346,EE_trial,05-02-2022,59.95789756482209,
Ayush _EE_trial_2023-04-18_18h02.35.346.csv,,,,,,,5,circle,0.2,0.9,0.2,circle.png,0.2.png,,,,,0,2,2,2,0,10,10,27,,,,,,,,,,,,,,,,,,,,,,,,,,,,,,,,,,,,,,,,,,,,382.8056871,383.2879437,383.2879437,0.5149224,-0.255555556,0.022222222,1,0,0,image_left_es,left,0.9,circle,1,-1,1,384.3891082,384.3891082,,,Ayush ,1,2023-04-18_18h02.35.346,EE_trial,05-02-2022,59.95789756482209,
Ayush _EE_trial_2023-04-18_18h02.35.346.csv,,,,,,,5,square,-0.4,0.6,0.3,square.png,-0.4.png,,,,,0,2,2,2,0,11,11,9,,,,,,,,,,,,,,,,,,,,,,,,,,,,,,,,,,,,,,,,,,,,384.9071076,385.3852693,385.3852693,0.509503,-0.255555556,0.022222222,1,0,0,image_left_es,left,0.6,square,-1,-1,-1,387.6018167,387.6018167,388.1088528,388.1088528,Ayush ,1,2023-04-18_18h02.35.346,EE_trial,05-02-2022,59.95789756482209,
Ayush _EE_trial_2023-04-18_18h02.35.346.csv,,,,,,,5,cross,-0.2,0.1,0,cross.png,-0.2.png,,,,,0,2,2,2,0,12,12,14,,,,,,,,,,,,,,,,,,,,,,,,,,,,,,,,,,,,,,,,,,,,388.1088528,388.6017825,388.6017825,0.5151811,-0.255555556,0.022222222,1,0,0,image_left_es,left,0.1,cross,-1,-1,-1,405.0938638,405.0938638,,,Ayush ,1,2023-04-18_18h02.35.346,EE_trial,05-02-2022,59.95789756482209,
Ayush _EE_trial_2023-04-18_18h02.35.346.csv,,,,,,,5,triangle,0.4,0.4,0.7,triangle.png,0.4.png,,,,,0,2,2,2,0,13,13,4,,,,,,,,,,,,,,,,,,,,,,,,,,,,,,,,,,,,,,,,,,,,405.6219347,406.0873444,406.0873444,0.5079624,0.282407407,0.115740741,1,0,0,image_right_es,right,0.7,0.4,1,1,1,414.8312543,414.8312543,415.3490354,415.3490354,Ayush ,1,2023-04-18_18h02.35.346,EE_trial,05-02-2022,59.95789756482209,
Ayush _EE_trial_2023-04-18_18h02.35.346.csv,,,,,,,5,triangle,0,0.4,0.5,triangle.png,0.png,,,,,0,2,2,2,0,14,14,3,,,,,,,,,,,,,,,,,,,,,,,,,,,,,,,,,,,,,,,,,,,,415.3490354,415.8339908,415.8339908,0.5142659,0.44537037,0.012037037,1,0,0,image_right_es,right,0.5,0,-1,-1,-1,422.5047058,422.5047058,,,Ayush ,1,2023-04-18_18h02.35.346,EE_trial,05-02-2022,59.95789756482209,
Ayush _EE_trial_2023-04-18_18h02.35.346.csv,,,,,,,5,circle,-0.2,0.9,0,circle.png,-0.2.png,,,,,0,2,2,2,0,15,15,21,,,,,,,,,,,,,,,,,,,,,,,,,,,,,,,,,,,,,,,,,,,,423.042383,423.5005496,423.5005496,0.5101584,-0.289814815,-0.024074074,1,0,0,image_left_es,left,0.9,circle,1,-1,1,424.5479388,424.5479388,425.0897158,425.0897158,Ayush ,1,2023-04-18_18h02.35.346,EE_trial,05-02-2022,59.95789756482209,
Ayush _EE_trial_2023-04-18_18h02.35.346.csv,,,,,,,5,triangle,-0.8,0.4,0.1,triangle.png,-0.8.png,,,,,0,2,2,2,0,16,16,1,,,,,,,,,,,,,,,,,,,,,,,,,,,,,,,,,,,,,,,,,,,,425.0897158,425.5358736,425.5358736,0.5015985,-0.293518519,0.000925926,1,0,0,image_left_es,left,0.4,triangle,1,-1,1,426.7487404,426.7487404,,,Ayush ,1,2023-04-18_18h02.35.346,EE_trial,05-02-2022,59.95789756482209,
Ayush _EE_trial_2023-04-18_18h02.35.346.csv,,,,,,,5,cross,-0.8,0.1,0.1,cross.png,-0.8.png,,,,,0,2,2,2,0,17,17,15,,,,,,,,,,,,,,,,,,,,,,,,,,,,,,,,,,,,,,,,,,,,427.2743216,427.7469913,427.7469913,0.5110413,-0.293518519,0.000925926,1,0,0,image_left_es,left,0.1,cross,-1,-1,-1,428.7308597,428.7308597,429.2425839,429.2425839,Ayush ,1,2023-04-18_18h02.35.346,EE_trial,05-02-2022,59.95789756482209,
Ayush _EE_trial_2023-04-18_18h02.35.346.csv,,,,,,,5,cross,0,0.1,0.5,cross.png,0.png,,,,,0,2,2,2,0,18,18,17,,,,,,,,,,,,,,,,,,,,,,,,,,,,,,,,,,,,,,,,,,,,429.2425839,429.7309806,429.7309806,0.5132628,0.184259259,0.134259259,1,0,0,image_right_es,right,0.5,0,1,1,1,434.9141965,434.9141965,435.4277784,435.4277784,Ayush ,1,2023-04-18_18h02.35.346,EE_trial,05-02-2022,59.95789756482209,
Ayush _EE_trial_2023-04-18_18h02.35.346.csv,,,,,,,5,triangle,-0.4,0.4,0.3,triangle.png,-0.4.png,,,,,0,2,2,2,0,19,19,2,,,,,,,,,,,,,,,,,,,,,,,,,,,,,,,,,,,,,,,,,,,,435.4277784,435.9148848,435.9148848,0.5142498,0.222222222,0.139814815,1,0,0,image_right_es,right,0.3,-0.4,-1,-1,-1,442.4656995,442.4656995,442.9774891,442.9774891,Ayush ,1,2023-04-18_18h02.35.346,EE_trial,05-02-2022,59.95789756482209,
Ayush _EE_trial_2023-04-18_18h02.35.346.csv,,,,,,,5,circle,0.8,0.9,0.9,circle.png,0.8.png,,,,,0,2,2,2,0,20,20,26,,,,,,,,,,,,,,,,,,,,,,,,,,,,,,,,,,,,,,,,,,,,442.9774891,443.4639091,443.4639091,0.5118256,0.486111111,0.130555556,1,0,0,image_right_es,right,0.9,0.8,1,1,1,448.9830563,448.9830563,,,Ayush ,1,2023-04-18_18h02.35.346,EE_trial,05-02-2022,59.95789756482209,
Ayush _EE_trial_2023-04-18_18h02.35.346.csv,,,,,,,5,square,0.4,0.6,0.7,square.png,0.4.png,,,,,0,2,2,2,0,21,21,11,,,,,,,,,,,,,,,,,,,,,,,,,,,,,,,,,,,,,,,,,,,,449.5103466,449.9794987,449.9794987,0.5102358,-0.27962963,0.001851852,1,0,0,image_left_es,left,0.6,square,1,1,1,451.4301386,451.4301386,,,Ayush ,1,2023-04-18_18h02.35.346,EE_trial,05-02-2022,59.95789756482209,
Ayush _EE_trial_2023-04-18_18h02.35.346.csv,,,,,,,5,triangle,0.8,0.4,0.9,triangle.png,0.8.png,,,,,0,2,2,2,0,22,22,5,,,,,,,,,,,,,,,,,,,,,,,,,,,,,,,,,,,,,,,,,,,,451.9594158,452.4292332,452.4292332,0.5128457,0.175,-0.265740741,1,0,0,image_right_es,right,0.9,0.8,-1,1,1,460.3962604,460.3962604,,,Ayush ,1,2023-04-18_18h02.35.346,EE_trial,05-02-2022,59.95789756482209,
Ayush _EE_trial_2023-04-18_18h02.35.346.csv,,,,,,,5,circle,-0.4,0.9,0.3,circle.png,-0.4.png,,,,,0,2,2,2,0,23,23,23,,,,,,,,,,,,,,,,,,,,,,,,,,,,,,,,,,,,,,,,,,,,460.9183265,461.3949376,461.3949376,0.511575,-0.257407407,0.005555556,1,0,0,image_left_es,left,0.9,circle,1,-1,1,462.6103553,462.6103553,463.1214363,463.1214363,Ayush ,1,2023-04-18_18h02.35.346,EE_trial,05-02-2022,59.95789756482209,
Ayush _EE_trial_2023-04-18_18h02.35.346.csv,,,,,,,5,square,0.2,0.6,0.2,square.png,0.2.png,,,,,0,2,2,2,0,24,24,13,,,,,,,,,,,,,,,,,,,,,,,,,,,,,,,,,,,,,,,,,,,,463.1214363,463.6092403,463.6092403,0.5109418,-0.35,-0.034259259,1,0,0,image_left_es,left,0.6,square,1,1,1,466.1444663,466.1444663,466.6582913,466.6582913,Ayush ,1,2023-04-18_18h02.35.346,EE_trial,05-02-2022,59.95789756482209,
Ayush _EE_trial_2023-04-18_18h02.35.346.csv,,,,,,,5,cross,0.8,0.1,0.9,cross.png,0.8.png,,,,,0,2,2,2,0,25,25,19,,,,,,,,,,,,,,,,,,,,,,,,,,,,,,,,,,,,,,,,,,,,466.6582913,467.1440123,467.1440123,0.512587,0.000925926,0.109259259,1,0,0,image_right_es,right,0.9,0.8,-1,1,1,471.8755995,471.8755995,,,Ayush ,1,2023-04-18_18h02.35.346,EE_trial,05-02-2022,59.95789756482209,
Ayush _EE_trial_2023-04-18_18h02.35.346.csv,,,,,,,5,circle,0,0.9,0.5,circle.png,0.png,,,,,0,2,2,2,0,26,26,24,,,,,,,,,,,,,,,,,,,,,,,,,,,,,,,,,,,,,,,,,,,,472.4035081,472.876046,472.876046,0.5136081,-0.215740741,-0.04537037,1,0,0,image_left_es,left,0.9,circle,1,-1,1,474.3618446,474.3618446,,,Ayush ,1,2023-04-18_18h02.35.346,EE_trial,05-02-2022,59.95789756482209,
Ayush _EE_trial_2023-04-18_18h02.35.346.csv,,,,,,,5,circle,0.4,0.9,0.7,circle.png,0.4.png,,,,,0,2,2,2,0,27,27,25,,,,,,,,,,,,,,,,,,,,,,,,,,,,,,,,,,,,,,,,,,,,474.8796745,475.3678635,475.3678635,0.5200133,-0.249074074,-0.027777778,1,0,0,image_left_es,left,0.9,circle,1,-1,1,476.5331505,476.5331505,,,Ayush ,1,2023-04-18_18h02.35.346,EE_trial,05-02-2022,59.95789756482209,
Ayush _EE_trial_2023-04-18_18h02.35.346.csv,,,,,,,5,,,,,,,,,,,0,2,2,2,,,,,,,,,,,,,,,,,,,,,,,,,,,,,,,,,,,,,,,,,,,,,,,,,,,,,,,,,,,,,,,,,,,,Ayush ,1,2023-04-18_18h02.35.346,EE_trial,05-02-2022,59.95789756482209,
Bhawani_EE_trial_2023-04-18_01h20.36.323.csv,,,,,,,,,,,,,,,,,,,,,,,,,,34.79327187,34.79327187,34.79327187,34.79327187,space,14.26975969,,,,,,,,,,,,,,,,,,,,,,,,,,,,,,,,,,,,,,,,,,,,,,,,,,,,,,,,,,Bhawani,8,2023-04-18_01h20.36.323,EE_trial,05-02-2022,None,
Bhawani_EE_trial_2023-04-18_01h20.36.323.csv,,,,,,,,,,,,,,,,,,,,,,,,,,,,,,,,49.10762977,49.10762977,49.10762977,49.10762977,space,7.966860451,,,,,,,,,,,,,,,,,,,,,,,,,,,,,,,,,,,,,,,,,,,,,,,,,,,,Bhawani,8,2023-04-18_01h20.36.323,EE_trial,05-02-2022,None,
Bhawani_EE_trial_2023-04-18_01h20.36.323.csv,,,,,,,,,,,,,,,,,,,,,,,,,,,,,,,,,,,,,,57.09806656,57.09806656,57.09806656,57.09806656,space,48.35969405,,,,,,,,,,,,,,,,,,,,,,,,,,,,,,,,,,,,,,,,,,,,,,Bhawani,8,2023-04-18_01h20.36.323,EE_trial,05-02-2022,None,
Bhawani_EE_trial_2023-04-18_01h20.36.323.csv,circle,cross,0.9,0.1,circle.png,cross.png,,,,,,,,0,0,0,3,,,,,,,,,,,,,,,,,,,,,,,,,,,105.5164727,105.9579437,105.9579437,0.506429767,-0.237777778,0.048888889,1,0,0,image_left,left,0.9,circle,1,-1,1,110.901588,110.901588,110.901588,,,,,,,,,,,,,,,,,,,,,,,,,,,Bhawani,8,2023-04-18_01h20.36.323,EE_trial,05-02-2022,None,
Bhawani_EE_trial_2023-04-18_01h20.36.323.csv,circle,cross,0.9,0.1,circle.png,cross.png,,,,,,,,0,1,1,3,,,,,,,,,,,,,,,,,,,,,,,,,,,111.9234713,112.3674939,112.3674939,0.516027375,-0.237777778,0.048888889,1,0,0,image_left,left,0.9,circle,1,-1,1,118.1658421,118.1658421,118.1658421,,,,,,,,,,,,,,,,,,,,,,,,,,,Bhawani,8,2023-04-18_01h20.36.323,EE_trial,05-02-2022,None,
Bhawani_EE_trial_2023-04-18_01h20.36.323.csv,circle,cross,0.9,0.1,circle.png,cross.png,,,,,,,,0,2,2,3,,,,,,,,,,,,,,,,,,,,,,,,,,,119.1758961,119.6365569,119.6365569,0.506870073,0.281111111,0.018888889,1,0,0,image_right,right,0.1,cross,1,-1,-1,123.1696649,123.1696649,123.1696649,,,,,,,,,,,,,,,,,,,,,,,,,,,Bhawani,8,2023-04-18_01h20.36.323,EE_trial,05-02-2022,None,
Bhawani_EE_trial_2023-04-18_01h20.36.323.csv,cross,circle,0.1,0.9,cross.png,circle.png,,,,,,,,0,3,3,2,,,,,,,,,,,,,,,,,,,,,,,,,,,124.1853547,124.6569335,124.6569335,0.511356478,-0.27,0.02,1,0,0,image_left,left,0.1,cross,-1,1,-1,128.6750686,128.6750686,128.6750686,,,,,,,,,,,,,,,,,,,,,,,,,,,Bhawani,8,2023-04-18_01h20.36.323,EE_trial,05-02-2022,None,
Bhawani_EE_trial_2023-04-18_01h20.36.323.csv,triangle,square,0.4,0.6,triangle.png,square.png,,,,,,,,1,0,4,0,,,,,,,,,,,,,,,,,,,,,,,,,,,129.6907939,130.1482085,130.1482085,0.505792283,0.277777778,-0.028888889,1,0,0,image_right,right,0.6,square,-1,-1,-1,132.4991852,132.4991852,132.4991852,,,,,,,,,,,,,,,,,,,,,,,,,,,Bhawani,8,2023-04-18_01h20.36.323,EE_trial,05-02-2022,None,
